,time,New_AccelerationX,New_AccelerationY,New_AccelerationZ,new_NetAcceleration
992,10.011132955551147,0.42581094707554196,0.20779929374316203,-0.2596507349557755,0.540290674815512
993,10.020011901855469,0.3391475183685255,0.1422602655431111,-0.22332323986834896,0.4302700220015589
994,10.03001093864441,0.23751303198019671,0.0789998082470708,-0.18148612382572912,0.3091773329414493
995,10.040138006210327,0.12084761309195537,0.03421846710942576,-0.13314689561432383,0.18303864316879492
996,10.050262928009031,-0.007844959101963294,0.027695658673966943,-0.07811213778835706,0.08324721594482086
997,10.061505794525146,-0.14205425378376296,0.08202863136375813,-0.01725411768411016,0.1649418441709992
998,10.070502996444702,-0.27165850796102226,0.22136516081997057,0.047175198225703666,0.35359069374079216
999,10.080497980117798,-0.3831440957890899,0.4696112258049756,0.11133216957469277,0.616221513355627
1000,10.090667963027954,-0.4601475088883334,0.8481468933046467,0.16983942341578545,0.9797623754281795
1001,10.100641965866089,-0.4843824014461307,1.3731267811587948,0.2161896388829156,1.4720195066392832
1002,10.112741947174072,-0.4370562176912956,2.0524915721552732,0.2434467549324459,2.112582806348235
1003,10.120867013931274,-0.30079893634627336,2.882931255912968,0.24514057739123224,2.9089287597173428
1004,10.130866050720217,-0.06192889505910072,3.8472473801302045,0.21627465720289618,3.853819186120464
1005,10.141047954559326,0.2872779569114836,4.912758060133025,0.15437460131193592,4.923571051529515
1006,10.15142583847046,0.7466666235045157,6.031400935415985,0.0604066574790033,6.077742776283004
1007,10.16234302520752,1.3069379945183963,7.141955391126127,-0.06072713479154997,7.26080584475658
1008,10.171396017074583,1.94936229229714,8.174409971323348,-0.20035669492291366,8.406017757006047
1009,10.181283950805664,2.646826716111531,9.056037338243414,-0.3468300464814022,9.44128142880631
1010,10.191475868225098,3.3664109972132064,9.718313703202536,-0.48662605925605756,10.296365822830854
1011,10.208624839782717,4.073186734810758,10.103674757792035,-0.6055446849997628,10.910626845118191
1012,10.213035106658936,4.734391414387145,10.171385975487928,-0.6898594395226061,11.240438637939075
1013,10.22189998626709,5.323046296064981,9.902192187355984,-0.7272472598212114,11.26574988903546
1014,10.231718063354492,5.820543231939431,9.301434866692803,-0.7072929301540917,10.995257040344734
1015,10.24181079864502,6.218226983372908,8.400087389170409,-0.6217755207029327,10.469690528405893
1016,10.251770973205566,6.5180492817680005,7.253158436137071,-0.46540533309531373,9.762677699449894
1017,10.263322830200195,6.732027878120456,5.935304242427345,-0.23744038118583224,8.977996086910748
1018,10.272173881530762,6.88008606964392,4.533944286193694,0.05629146182456389,8.239866737071123
1019,10.2832670211792,6.986255805014431,3.1404537407755955,0.4021344039131902,7.6701976473791005
1020,10.292261123657228,7.073877644066092,1.840321583303999,0.7792073605213231,7.350761359470405
1021,10.302248001098633,7.160773195012205,0.7037529240209115,1.1622980856419018,7.28854428321322
1022,10.31352710723877,7.255315224670065,-0.22133502892335702,1.5264125604354055,7.417447236685456
1023,10.32245397567749,7.354220532668801,-0.912365613419464,1.8512514605970833,7.638331141423531
1024,10.332665920257568,7.442876325237454,-1.3708990841657391,2.1238873349785816,7.860449713815939
1025,10.34273386001587,7.498616011943465,-1.618102645213077,2.3392159652041324,8.019939500824577
1026,10.352829933166504,7.496272050228597,-1.6884007388656659,2.49878643835313,8.080143895410409
1027,10.364272117614746,7.414276483425496,-1.6227944966071282,2.608633172658057,8.025579404652774
1028,10.373029947280884,7.239466785972088,-1.4629713923804153,2.6766695127005424,7.855871964354885
1029,10.390607833862305,6.969479695222658,-1.2468023979293337,2.7103883398991573,7.581185157656061
1030,10.393002033233644,6.612516744258694,-1.0053708985456444,2.7154699341128214,7.218720475251467
1031,10.40315580368042,6.184978385978765,-0.7614304970259477,2.6953832369093584,6.789611537535682
1032,10.41454291343689,5.7078776777549844,-0.5290953027173032,2.6516783004692352,6.315948640762571
1033,10.423301935195925,5.203007522153419,-0.31450596959602795,2.5846148118044026,5.8181126669990935
1034,10.43333387374878,4.689629946436812,-0.11715770242935303,2.4938817889916476,5.3127960001509225
1035,10.443504810333252,4.182163725026954,0.0684145840523552,2.37924954371246,4.8120684086469865
1036,10.453649997711182,3.6890819632443232,0.25081476821348625,2.2410337890689394,4.323709775555855
1037,10.465014934539797,3.2129974262994003,0.43997640621386525,2.080290239804843,3.852861168178621
1038,10.473830938339232,2.7516994479629417,0.6455048851985531,1.8987133579068756,3.4049432923660796
1039,10.491754055023192,2.29975376861945,0.8753140355821657,1.6982819243875704,2.9898500885275245
1040,10.493835926055908,1.85023912906965,1.1346596723511857,1.480772194897116,2.627455746531412
1041,10.503973960876465,1.396270430108184,1.425587305492123,1.247318417662498,2.3532261928286586
1042,10.5152850151062,0.932095050535406,1.746723035197432,0.9981942433145691,2.2172582827240213
1043,10.524316787719728,0.45369039675996564,2.0932829795472734,0.7329055013475322,2.2638063261860553
1044,10.534615993499756,-0.041097580986820634,2.4571726316474254,0.4505642418912275,2.498478434758067
1045,10.544389963150024,-0.5527658007270858,2.8270931771153074,0.15041201866278053,2.884550162140293
1046,10.55445384979248,-1.0805800026019152,3.1886559176235068,-0.16767247259453932,3.3709484957626583
1047,10.565721035003662,-1.6230929854063632,3.524597750065995,-0.502788118400773,3.9128015578419775
1048,10.574689865112305,-2.1786681072921636,3.815246516865665,-0.8527428063323913,4.475474388256428
1049,10.592061042785645,-2.745943120168841,4.039377625366529,-1.2138156752301061,5.03290410329351
1050,10.594666004180908,-3.3241447950260894,4.175529443404187,-1.5804960389889546,5.566233239839496
1051,10.604827880859377,-3.9131049233855366,4.203719669706082,-1.9452802105157758,6.063642824270096
1052,10.616188049316406,-4.512813653752521,4.107378370695608,-2.2987186885906756,6.5207477916899474
1053,10.625044822692873,-5.122454302618107,3.8752542227383784,-2.629863803257427,6.940700036519805
1054,10.63503098487854,-5.739064265040264,3.503078029175748,-2.927098686403493,7.333234009405472
1055,10.64505100250244,-6.35614179467041,2.9948321849964956,-3.1791787248885943,7.712116161925412
1056,10.655245780944824,-6.962578600513534,2.3635057081705058,-3.376274561673339,8.090914034686444
1057,10.666819095611572,-7.54224074642678,1.6311872500216789,-3.510834088461323,8.477742819783797
1058,10.675427913665771,-8.074396520481496,0.8283263316451075,-3.57810669748359,8.870448197257975
1059,10.691009998321531,-8.53503693877137,-0.007935440098900681,-3.576206152461654,9.253981249295132
1060,10.695466995239258,-8.898956737663385,-0.8362871945857663,-3.505716570520284,9.601086186648528
1061,10.705518007278442,-9.142282503343964,-1.6143393019774734,-3.3690562123483616,9.876130847392686
1062,10.7169189453125,-9.245012100554067,-2.301824622897185,-3.169932153311879,10.040772639123315
1063,10.72563409805298,-9.193121731501199,-2.8633923669450163,-2.9131398095897585,10.05976573124321
1064,10.735732078552246,-8.979903870856795,-3.2705775798078776,-2.6047661909389213,9.905561980262869
1065,10.745800971984863,-8.606382437803244,-3.502773648661095,-2.252653992700489,9.561050774382078
1066,10.756056785583496,-8.080889536441612,-3.5473228403373835,-1.8668509451607822,9.020499292455963
1067,10.767252922058104,-7.418143299531245,-3.399074726725029,-1.4597961944718019,8.289364507586543
1068,10.776198863983154,-6.638309321961338,-3.0599015221086994,-1.0461709297123047,7.384078926529499
1069,10.79079294204712,-5.766439611389148,-2.538669940868572,-0.6424950908553974,6.333203833940667
1070,10.79626989364624,-4.832408487052744,-1.8520034830415733,-0.2665815833368262,5.182002935884143
1071,10.806282997131348,-3.8711342424298807,-1.025810326295871,0.06308231362424745,4.005239883794801
1072,10.818084001541138,-2.922568573444958,-0.09708851188290964,0.3280220456530994,2.942521318200121
1073,10.82654905319214,-2.0307765052591735,0.8848236964299542,0.5106106255814371,2.273255242825428
1074,10.836647987365724,-1.241649882920604,1.8584409805893463,0.5952594688958699,2.312970199851445
1075,10.846717834472656,-0.5994059667045148,2.7525990092025974,0.5703749467306691,2.8742679760666205
1076,10.85682487487793,-0.14252557296065413,3.4920236202587827,0.4313349887685561,3.5214474830570723
1077,10.86864185333252,0.10031356633140447,4.006408156580344,0.18371136391042622,4.0118722554355415
1078,10.87714910507202,0.1142203794452444,4.242012652081815,-0.154974641235179,4.246379019226708
1079,10.892049789428713,-0.09809709612140112,4.172806261683735,-0.5560446701136926,4.210833743212415
1080,10.897089958190918,-0.5136280588877375,3.8069863593989677,-0.9826503568492433,3.9651684261002758
1081,10.907238006591797,-1.0890873550901665,3.1860467695767363,-1.3940536806014325,3.644227071595025
1082,10.918988943099976,-1.764483968003174,2.377284899110414,-1.7505443925132431,3.439373901604505
1083,10.927443981170654,-2.4693239075810594,1.4633664665978834,-2.018640843184994,3.5091185260531157
1084,10.937521934509276,-3.1298447787771644,0.5317782421881565,-2.176318410596075,3.8490360172909304
1085,10.947341918945312,-3.6763941798862674,-0.3351285411920594,-2.2172465353000828,4.306317162416554
1086,10.95781183242798,-4.050856071440542,-1.0691637654674369,-2.1516959586884608,4.709813326189422
1087,10.969435930252075,-4.213871573127805,-1.6231819765193722,-2.002510981956957,4.939785784481971
1088,10.97807788848877,-4.150699357324222,-1.9745864360346161,-1.7980367526642562,4.935608666840901
1089,10.993531942367554,-3.873882474641098,-2.1251560609640276,-1.565933114727519,4.687792682124905
1090,10.998043060302734,-3.4212412838337585,-2.097633486913999,-1.3297025847340118,4.22765503931905
1091,11.008033990859984,-2.8490579067373942,-1.9297686078439396,-1.1070684618009674,3.614794380718931
1092,11.019680976867676,-2.221931347492371,-1.666861806358307,-0.9092903673209312,2.9227069929378784
1093,11.02815008163452,-1.6018628882201191,-1.3543062797305756,-0.7414194838959672,2.2248175347823778
1094,11.038334846496582,-1.039216766041443,-1.031598880690138,-0.6034558420632632,1.583769772025929
1095,11.048310995101929,-0.5673750591014056,-0.7286920002524985,-0.492010604962879,1.0464133620698128
1096,11.058530807495115,-0.2016501803022613,-0.4648560146772045,-0.40207689571024396,0.6468537235430389
1097,11.069973945617676,0.058193683678136786,-0.24963823286929793,-0.32853469790184997,0.41670229163708317
1098,11.080120086669922,0.22328862178898753,-0.0850764647896099,-0.26701924819180867,0.35832260937099963
1099,11.093830108642578,0.3105791783310323,0.031780454752018246,-0.214088968865194,0.3785545005765831
1100,11.098729133605955,0.3386330855379278,0.1067364064389975,-0.1670086013542393,0.39237341908792395
1101,11.10887098312378,0.3249700966175743,0.14697790329222205,-0.12352144394554472,0.37744617479344744
1102,11.119959831237791,0.2848349726819887,0.16020040497011523,-0.08180910351474924,0.33687959396975226
1103,11.129024028778076,0.23092290494787654,0.15408257828940253,-0.040638572670389415,0.280567857301157
1104,11.139028072357178,0.1735145428611444,0.13588399873693655,0.00045458041555469417,0.2203904815104452
1105,11.149016857147217,0.12065899965348731,0.1120785206422399,0.041129345731838435,0.16974042555343835
1106,11.15922999382019,0.07825731647298977,0.08804750890651107,0.08042287350864911,0.14263383185480222
1107,11.170618057250977,0.050045962390558626,0.06787953921566364,0.11708154532454171,0.14429247538007914
1108,11.180598974227903,0.03755709667290436,0.054286707125158776,0.1498911373320627,0.1637831955106809
1109,11.193313121795654,0.04015386601888231,0.04861761199209647,0.177888444726011,0.18873342024960887
1110,11.199455976486206,0.05522138042946607,0.05095264363869232,0.20042580064669446,0.21404689746683062
1111,11.209656000137327,0.07856550113730126,0.060284349119291855,0.21712234106214573,0.23863958537090757
1112,11.220868110656738,0.10504115416224878,0.07478293012343519,0.22774590414835139,0.2617142097058048
1113,11.22976779937744,0.1293765531074134,0.09212846838809746,0.23208654200698145,0.2812296395514712
1114,11.239902019500732,0.1470704651970512,0.10987583403157632,0.2299260859528469,0.29422512747725593
1115,11.249946117401125,0.15515606914613955,0.12579830217839363,0.22117179613253585,0.2980194322998755
1116,11.260313034057615,0.15260772121185417,0.13812679224742205,0.20605730824938331,0.29125202418698976
1117,11.271551132202148,0.1402528916263101,0.14560140665705068,0.18520154540714379,0.27417194541245044
1118,11.281368017196655,0.12022237841789116,0.14731608442703126,0.15942001033742711,0.24813340907534437
1119,11.29498291015625,0.09514039083430113,0.14244645743437098,0.12939612281156906,0.21467660282940082
1120,11.30026388168335,0.0673224260671416,0.13004689817093523,0.09543772250858328,0.17479377464049653
1121,11.31050992012024,0.038198860218465816,0.10911436843481992,0.05748701776531813,0.12911179470702713
1122,11.32183313369751,0.008084213722497036,0.07901416155363034,0.015397767490992803,0.08090539834424448
1123,11.330655097961426,-0.023683510338077092,0.04021012933327594,-0.03062169614278671,0.05581622915957097
1124,11.340715885162354,-0.058303303424211986,-0.004863701209364394,-0.07954263729539683,0.09874189550305765
1125,11.350680828094482,-0.09692179097027,-0.050980405176395904,-0.1291964784443818,0.16936518331482364
1126,11.360965013504028,-0.14006095289890375,-0.08952245566178828,-0.17628175134043245,0.24229444164139596
1127,11.372411012649536,-0.18716165053619732,-0.10826227097977517,-0.21679542177828545,0.30618696519146044
1128,11.382365942001345,-0.23624408329316102,-0.09162465375540765,-0.246765052849792,0.35369384412905036
1129,11.396326065063477,-0.28365012929173977,-0.02146621363371664,-0.26296513388553594,0.38738721689599787
1130,11.401566982269289,-0.3238911914146573,0.12161589579822853,-0.2633949999727091,0.4348250866698415
1131,11.411173820495604,-0.34970437890362654,0.35642461406281123,-0.2475386901420728,0.5573213267509581
1132,11.42269802093506,-0.35243117894994697,0.6987853336599306,-0.2164568484118936,0.8120112349337781
1133,11.431486129760742,-0.3227827322534506,1.158814022969638,-0.17264316282524536,1.215254826669034
1134,11.44152307510376,-0.251979803616548,1.7381448596456235,-0.11959647398448314,1.7603819730764854
1135,11.45177412033081,-0.13314640298508784,2.427554867897087,-0.06119198910581078,2.4319734909758854
1136,11.461777925491331,0.03728482448627571,3.2054978549472626,-0.0010319816176649706,3.2057148533820863
1137,11.473137855529783,0.2584620825604623,4.038058128193651,0.05800880464644538,4.046737095019741
1138,11.481859922409058,0.5246027208420924,4.88069808977661,0.11389371455235851,4.910131733108442
1139,11.495792865753174,0.8253608771055214,5.681880398457108,0.1652633778197904,5.743892184214107
1140,11.501780033111572,1.1472738812820855,6.388295375942291,0.21131025412894258,6.493936186355525
1141,11.512045860290527,1.476247225192665,6.951084586729908,0.25200125301686827,7.110582777331631
1142,11.523499011993408,1.8006711594015534,7.332059286257992,0.28876258868267085,7.555454574949498
1143,11.532247066497805,2.1144292204822692,7.508600943451926,0.3255374183573381,7.807424265863049
1144,11.54233980178833,2.418904914502772,7.476114548819759,0.3699198812727801,7.866398823543147
1145,11.552249908447266,2.723230605229757,7.247687978600901,0.43377726916565756,7.754555350480184
1146,11.562474012374878,3.0425032915649672,6.851475744523608,0.5326279293050377,7.515533159267861
1147,11.574007987976074,3.394345726681402,6.3267059679772695,0.6834031730328608,7.2122001646093326
1148,11.582777976989746,3.794641666330776,5.719059707575473,0.9009563533426364,6.9223313749989845
1149,11.596072912216188,4.25329752284377,5.075854395713183,1.1942215742237918,6.729116051358554
1150,11.602834939956663,4.770680656627919,4.441302429982719,1.5629825760918066,6.702796113209828
1151,11.61284589767456,5.335301851679695,3.8521444652590358,1.9960935806352165,6.876689058872426
1152,11.624221801757812,5.923364333288638,3.3340963406804733,2.4719865184420913,7.232783750477704
1153,11.633069038391112,6.500678423523691,2.899768399743415,2.961915368233569,7.709761305435801
1154,11.643240928649902,7.026899155880827,2.548746487708696,3.435032777388874,8.226352204182726
1155,11.653247833251951,7.4612826248656114,2.269990140705817,3.863091529859357,8.70327925641216
1156,11.663397789001465,7.768697540214159,2.0458500818188723,4.223151515692295,9.075966766857508
1157,11.67480993270874,7.924675245249208,1.8565431934538226,4.498594134118645,9.29970857367864
1158,11.683708906173706,7.918537675910616,1.6840723678764153,4.679519446502832,9.350788251011727
1159,11.69766902923584,7.753992921895169,1.5149812902816058,4.762828875895563,9.22518907360539
1160,11.70370101928711,7.447233233124933,1.3417134139699518,4.751754986409366,8.935359710982743
1161,11.71374797821045,7.023334456366783,1.1626886674062171,4.65486588717459,8.505695048077225
1162,11.72521996498108,6.5121033571429505,0.9814894955073294,4.4847629811693865,7.967679132669126
1163,11.73392391204834,5.944287822990988,0.8056461686409832,4.2565492054854595,7.355394932314901
1164,11.744009971618652,5.348591898611986,0.6454027545389233,3.986122314113012,6.701727472565105
1165,11.754071950912476,4.749576499402391,0.5126424530791772,3.6885126000625115,6.035429099011471
1166,11.764261960983276,4.166376855007694,0.4199807372130625,3.376552012761248,5.379236322421228
1167,11.775584936141968,3.612148894869176,0.37994143151638055,3.060050659605427,4.749303651003896
1168,11.79129695892334,3.0941489871903936,0.40411420624024874,2.7454871487600245,4.1562923297842
1169,11.798128128051758,2.6142987605505934,0.5022358774486593,2.436086982640295,3.6085064324457687
1170,11.804508924484251,2.1700265413238933,0.6811950832888256,2.132115917722033,3.1175246940723143
1171,11.814516067504885,1.7551713492809529,0.9439917904101969,1.831260678180277,2.7065222402832494
1172,11.826044082641602,1.360797381279761,1.2886981680150211,1.5290533853524702,2.418784144234656
1173,11.8350830078125,0.975861846292435,1.7074878413357626,1.219356592972756,2.314012007787529
1174,11.844843864440918,0.5877643835090345,2.18583258084699,0.8949508666404328,2.433981942355865
1175,11.85489296913147,0.18285599453268944,2.702009071200736,0.5482692859230692,2.7631302078393256
1176,11.865041017532349,-0.25300512628233346,3.2271086575793086,0.17230257525405357,3.2415937529535754
1177,11.87762212753296,-0.7337818251801606,3.7257677864056826,-0.2383512520169849,3.8048117804329156
1178,11.891398906707764,-1.2724301079028464,4.157787209005203,-0.686390003601299,4.401977293434022
1179,11.897871971130373,-1.8799033895196928,4.480677651619913,-1.1708344227191145,4.998135874211281
1180,11.905356884002686,-2.5639988150350064,4.652997533596532,-1.686391943971079,5.573902919844127
1181,11.915319919586182,-3.3280744673475358,4.63817473891651,-2.223319687605844,6.126328019477048
1182,11.926569938659668,-4.1697112978745645,4.408397128100829,-2.7678000909435987,6.669420881163358
1183,11.935328006744385,-5.0794798099127085,3.948181073351344,-3.3026986637273263,7.231671134023372
1184,11.945630073547363,-6.040038343554182,3.2573227991068836,-3.808540150647308,7.84838792926795
1185,11.955774784088137,-7.025754945118767,2.352970418194231,-4.264605162541958,8.548950785338366
1186,11.965806007385254,-8.002933145997496,1.2705072707842966,-4.650140833167425,9.34264081685217
1187,11.978437900543211,-8.930663090703463,0.06290982388141023,-4.945727554062477,10.208864869543858
1188,11.99107313156128,-9.762387501396521,-1.2016795204137911,-5.134786923453043,11.095687457137087
1189,11.997438907623293,-10.448381300533892,-2.444230598504318,-5.205067366272682,11.92625931746614
1190,12.006064891815186,-10.939335586469609,-3.580748893044392,-5.149827842813619,12.60997829177582
1191,12.016080856323242,-11.191033120846882,-4.529354029753828,-4.968475366779841,13.055267814527484
1192,12.027443885803224,-11.169759864497761,-5.2177934497233505,-4.666621161189397,13.182042974310987
1193,12.036294937133787,-10.857755335025198,-5.590544272971195,-4.255811457612035,12.932786526733558
1194,12.046358108520508,-10.25779810821259,-5.614662063960939,-3.7533487442997724,12.281468923450019
1195,12.056448936462402,-9.395994453027246,-5.28367961362833,-3.1824387336929885,11.239657393110335
1196,12.066651821136476,-8.321937189017502,-4.619097325848021,-2.572400529465572,9.85940886501841
1197,12.079156875610352,-7.105627113588971,-3.6692914162835084,-1.958213959295307,8.233361287187728
1198,12.091481924057009,-5.831049621593998,-2.5060327704135053,-1.3787328949563735,6.494785934233143
1199,12.09809112548828,-4.587147738714049,-1.2191907213598148,-0.8734786053284922,4.826107672421522
1200,12.10696506500244,-3.4577790310484993,0.08982061723888775,-0.47826317558598697,3.4918532666710758
1201,12.11699891090393,-2.5125113793318743,1.3158917210616523,-0.21973009717128938,2.844743532980374
1202,12.1282479763031,-1.7996969388240402,2.3597768702123862,-0.10953673592086154,2.9697565969820126
1203,12.137102127075195,-1.3426015506443103,3.1390205853171573,-0.140578919686938,3.416985746458086
1204,12.147170066833496,-1.1387521618326886,3.5984867782563783,-0.28784847300009037,3.785329618774708
1205,12.157341003417969,-1.1621189425099394,3.7179868559798406,-0.5140079492228126,3.9291412381897803
1206,12.167529106140137,-1.3674190836186424,3.514939973813152,-0.7771550570299705,3.8507931588727673
1207,12.179958820343018,-1.695850293715016,3.0410896630676443,-1.0379774846924676,3.6333912280731187
1208,12.19144582748413,-2.0817422121596496,2.3736213658548455,-1.2648773302994032,3.4011238858699806
1209,12.197957992553713,-2.4596604597434273,1.6024366689616807,-1.4367370329497322,3.2683246713121163
1210,12.20776081085205,-2.7713614350558764,0.8164677061576424,-1.54330090150916,3.2754910153307204
1211,12.21814489364624,-2.9718214786282333,0.0921216413339554,-1.5835566786135216,3.368658642845791
1212,12.2290358543396,-3.0334980988670477,-0.5141166269594037,-1.5631391065180817,3.4510622260794217
1213,12.238042831420898,-2.948148532873276,-0.968599181031412,-1.4917492514149024,3.4431206738182287
1214,12.248086929321287,-2.7259652036978697,-1.2597911875083558,-1.3810159105327324,3.3053237470843655
1215,12.25816297531128,-2.3923053026289214,-1.3950162036897147,-1.2429404414396,3.0354729138158003
1216,12.268707990646362,-1.982675907315513,-1.3956662401181985,-1.0889480706206807,2.6579495683258485
1217,12.279575824737549,-1.5368685734974186,-1.2917653566734977,-0.9293208480306493,2.212297445528111
1218,12.291533946990969,-1.093247724021326,-1.1166675219957987,-0.7727308522615759,1.7433444613142144
1219,12.298530101776125,-0.684110577801153,-0.902536436789001,-0.6258285356270202,1.2939245180443388
1220,12.308645009994509,-0.33272598529496633,-0.6770739198305258,-0.4930271052103178,0.9012277185468971
1221,12.318483829498293,-0.0522347081246814,-0.46168058363724673,-0.3765766299302053,0.5980697152089297
1222,12.330034017562866,0.15379409669118493,-0.2709224019877507,-0.27689536911781126,0.4168004528725453
1223,12.338839054107666,0.2896004334366777,-0.11298982947065936,-0.19309806114731998,0.36595351320813196
1224,12.3488450050354,0.36481346718463076,0.00920825365968209,-0.12364955865782988,0.3853087997061692
1225,12.358989953994753,0.39192633583916253,0.09666279105417702,-0.06695714853120135,0.4091860305999276
1226,12.368968963623049,0.3841236344134035,0.15290316729316067,-0.021660189420226385,0.4140042377669128
1227,12.380582809448242,0.35370716361391175,0.18285876142334068,0.013440990325281676,0.3984052515241247
1228,12.392704010009766,0.3111251394924265,0.19199731331284822,0.03961762333097996,0.36773819059478885
1229,12.399576902389526,0.2644782491149278,0.18569630601638656,0.058346451368589666,0.32838418157751825
1230,12.4093599319458,0.2193749816315598,0.16879498605922796,0.07122083821339632,0.28581381646169757
1231,12.419341087341309,0.17905464844149488,0.14530393584014623,0.07966391261977042,0.24396749757505626
1232,12.430867910385132,0.14472813309372462,0.11827102261007713,0.08456342859368056,0.2051468760511521
1233,12.43973684310913,0.11609474177460719,0.08981460421896867,0.08600937916516775,0.17012426488628923
1234,12.449757099151611,0.09197869957714241,0.061327989824025195,0.08329159294786019,0.13841493043580952
1235,12.459837913513184,0.07100282947587185,0.03382048916374058,0.07519011532450078,0.10880616123807584
1236,12.469854831695557,0.05220278744641957,0.008313273285967778,0.06047426355255548,0.08032047112739807
1237,12.48141384124756,0.03548141838966011,-0.013815721016673036,0.038482699289586385,0.054136155596471607
1238,12.492341995239258,0.021793149979161448,-0.03064325370523625,0.009631381293895064,0.03881641262772864
1239,12.500019073486328,0.01296472208348503,-0.03975202696322502,-0.02434552317334338,0.04838400732649966
1240,12.510167121887209,0.011169987636261102,-0.038546727988797776,-0.060586019032523454,0.07267244708034735
1241,12.520339965820312,0.018249568328136612,-0.02476848312376899,-0.09570499417127516,0.10052845572145018
1242,12.531623840332031,0.035136489813078556,0.002936176279047152,-0.12658032319221782,0.13139928564102824
1243,12.540626049041748,0.0615426068378551,0.044551100669642595,-0.15103031094580976,0.1690634432740071
1244,12.550374031066896,0.09590698830845133,0.0984439532545521,-0.16820418285609023,0.21721420181255852
1245,12.560622930526732,0.13554479515137824,0.16138084540097075,-0.17863535804838074,0.2762729807636539
1246,12.570682048797607,0.17694924222207134,0.22879231283738966,-0.18397162777536843,0.3427864007844622
1247,12.582316875457764,0.21620519041641473,0.2952520682776849,-0.18645851083548076,0.4107130926184774
1248,12.591444969177246,0.2494511202649844,0.35510119173639176,-0.1883383931955295,0.47306877737337016
1249,12.60080909729004,0.2733155674152166,0.4031143793991364,-0.1913331360230289,0.5232695015097475
1250,12.611030101776125,0.2852612794637694,0.43509947974647806,-0.1962695180896273,0.5560640957372605
1251,12.621038913726808,0.28377742232393505,0.4483671197799776,-0.20284275243965835,0.5680738347590973
1252,12.632478952407835,0.268397069721377,0.442072588126799,-0.20956115057661576,0.5580152650592484
1253,12.641258001327516,0.23960678708487504,0.4174819446459041,-0.21393224807309646,0.5267538260782463
1254,12.65172791481018,0.1987850439334629,0.3782318445487612,-0.21286973230494238,0.47737652314914364
1255,12.661412000656128,0.1482781955103353,0.3306282424157149,-0.203209487337863,0.41544621034596413
1256,12.672731876373293,0.0916178934316,0.28396667967011263,-0.18219295974001387,0.34960719119969297
1257,12.682794094085692,0.03377546137546344,0.2507802980808799,-0.14782495715705485,0.29305930740235075
1258,12.691690921783447,-0.018703047022992164,0.24686359663299903,-0.09910104314126535,0.26666918843805565
1259,12.70181393623352,-0.057815860659929476,0.2909013686294397,-0.03613739388044483,0.29878452311122133
1260,12.71176791191101,-0.07455417680439487,0.4035572649345149,0.03978956156854328,0.4123105632532644
1261,12.721868991851808,-0.05969756835625073,0.6059429768046533,0.12629817368872745,0.6218375346371766
1262,12.733171939849854,-0.004913336896495956,0.9174974309710416,0.22001890076624714,0.9435221213158214
1263,12.742088794708252,0.09596408195338738,1.3534445619485036,0.31670252205934585,1.3933132364159482
1264,12.751995086669922,0.24570075455954754,1.9221167403911414,0.411263922239278,1.9809188873395682
1265,12.762290000915527,0.4427822458283364,2.622468868845338,0.49778346416822306,2.7057692921760808
1266,12.773571014404297,0.6811597379687928,3.442092727047582,0.5695834586525829,3.5547723199375527
1267,12.783804893493652,0.9507479427668173,4.356060254947074,0.6195525713408458,4.501447321035753
1268,12.792715072631836,1.2386103808317133,5.326967274774641,0.6408381527856937,5.506487951506824
1269,12.802437782287598,1.5306332189875704,6.306503165351233,0.6278495370734468,6.519893807943249
1270,12.812592029571531,1.813450282876707,7.238670054099609,0.5773510022119822,7.48466968278088
1271,12.822675943374634,2.0764356309986964,8.064443427356105,0.4894424380455904,8.341845516602909
1272,12.834101915359495,2.3136320603158618,8.727327450992792,0.3683831281084042,9.036306982194038
1273,12.842941999435425,2.525386852600274,9.179085966978692,0.22327858001641737,9.5227648962245
1274,12.852927923202516,2.719247135329361,9.384949143015236,0.06850279599795603,9.771195834340794
1275,12.8629949092865,2.9095949805638646,9.327652350482238,-0.0764974045421845,9.771217589189227
1276,12.87428092956543,3.115777082671279,9.009715946245283,-0.18844222767387778,9.535122376461498
1277,12.89111590385437,3.3589701507788625,8.453582884963728,-0.2427355576408433,9.099706842405324
1278,12.89333200454712,3.6583939470917954,7.699621828287529,-0.21708639223442222,8.52731781232839
1279,12.903259992599487,4.027549469347827,6.8023183509936045,-0.09559598665042315,7.905809779457888
1280,12.913489818572998,4.471025829540549,5.825024110126034,0.12766340952099556,7.344200146925387
1281,12.923515796661375,4.982351043325551,4.833565477472237,0.4466198335511583,6.956051065055509
1282,12.935364961624146,5.543426788359712,3.889197014738518,0.8435633048824628,6.824004178391108
1283,12.94377613067627,6.125967128394647,3.041972447223153,1.292117072619854,6.960649118953797
1284,12.95395803451538,6.694761923124578,2.3260555299956516,1.7618418519631467,7.303044450588465
1285,12.963951110839844,7.211875209141622,1.758044542979628,2.222565955720838,7.74865563016329
1286,12.975156784057615,7.640811051524823,1.338245807405084,2.647143971454545,8.196356908514252
1287,12.992326974868774,7.950198563982627,1.0539680381543608,3.0128917866433724,8.567031151468138
1288,12.994513034820557,8.116841670119074,0.8837227236069539,3.302467556016179,8.80740464089962
1289,13.004211902618408,8.127812080157238,0.8014168833783398,3.5043207142229322,8.887286531863689
1290,13.014302968978882,7.981217069071598,0.7799504002987357,3.612516611400324,8.795363824095583
1291,13.024343967437744,7.6856058077191,0.7939734749571143,3.626095366397788,8.535074581794383
1292,13.036289930343628,7.25834140552226,0.8218025406657399,3.5483053869690764,8.120920544750902
1293,13.044627904891968,6.723374348351708,0.8465792907528904,3.3858709875458755,7.575261148495826
1294,13.05463194847107,6.108755595206998,0.856772597024856,3.1483159872527944,6.925521479323926
1295,13.06459093093872,5.444097632456735,0.8461603115868866,2.8473612229119696,6.201745902434942
1296,13.074779033660889,4.758143055516369,0.8134617919787834,2.4963889380883786,5.4344827862436
1297,13.092544078826904,4.076634796840081,0.761767004501774,2.109918522074772,4.653063120757031
1298,13.094769954681396,3.4207141552364435,0.6978474914104479,1.7030354253243563,3.884405503164228
1299,13.104965925216677,2.806013414811293,0.6313917832188024,1.2907252268856533,3.152513041897872
1300,13.115015029907228,2.242458482574822,0.5741885787682192,0.8870530551763134,2.478946488482007
1301,13.125361919403076,1.7346397683843093,0.5392538159087599,0.5041651394582582,1.8851929057466492
1302,13.136691093444824,1.2825252473163136,0.5398584131728732,0.15121566047320315,1.3997086454864995
1303,13.145397901535034,0.882288244849739,0.588406199134782,-0.16656300929912782,1.073497851999274
1304,13.155398845672607,0.5270756318736634,0.6951632562831733,-0.44842640212769835,0.9808908770737134
1305,13.16546392440796,0.2076240826201297,0.8669104888670338,-0.6981758547780685,1.1322946081239709
1306,13.175657987594604,-0.08728328806562408,1.105630766332086,-0.923648109624545,1.4433168724325984
1307,13.192847967147827,-0.3704650152767194,1.4073527053201491,-1.135668120327226,1.845976176510276
1308,13.195719957351685,-0.6560078944871799,1.761281219167808,-1.3465981025872535,2.3120952273888578
1309,13.20577907562256,-0.9588666344527064,2.149358128273138,-1.5686937737764242,2.8284210687458446
1310,13.215873956680298,-1.294336958951564,2.5464048029228064,-1.8125069912037781,3.382996774580031
1311,13.22585105895996,-1.6773738405470011,2.9209789126789865,-2.0855422000536,3.961715168644904
1312,13.237154006958008,-2.121750114249761,3.2370009865251905,-2.3912796343255986,4.549529340890582
1313,13.24606990814209,-2.6390642773869537,3.45609286795035,-2.7285523660248447,5.133637714741563
1314,13.256196022033691,-3.2376079507165967,3.5404944964380873,-3.0911774932691864,5.707239684536271
1315,13.26620388031006,-3.9211077329156168,3.456423698847566,-3.467761379292992,6.272744185984454
1316,13.27647089958191,-4.687383456041868,3.1777517481430824,-3.84173082166112,6.843140035312915
1317,13.292783975601196,-5.527004608529498,2.6898051626696926,-4.191800765189961,7.440028589385795
1318,13.296494960784912,-6.422064163473321,1.9929751916662908,-4.49315184359605,8.087228927387685
1319,13.306621074676514,-7.345248581143223,1.1056807184980595,-4.719506815062584,8.800508573228429
1320,13.316619873046877,-8.259494534535627,0.06611162764471085,-4.846100493800291,9.57644561981872
1321,13.32680606842041,-9.118664567005371,-1.067924632319261,-4.853272296341401,10.38483309872183
1322,13.3381929397583,-9.86975431033691,-2.2217290338441953,-4.730111374548946,11.167904174995307
1323,13.346970081329346,-10.457032294042635,-3.3093946966921215,-4.477338054811121,11.846863454695693
1324,13.356969833374023,-10.828117118895431,-4.242200367054817,-4.108515444145982,12.333867335493046
1325,13.367067813873293,-10.941354660898156,-4.938693387826468,-3.648888344303097,12.546645780594496
1326,13.37724494934082,-10.773159937846343,-5.334835422870674,-3.1318362070645636,12.422956252978341
1327,13.393582820892334,-10.323524911408262,-5.392385741600677,-2.5940139904543598,11.93238866134347
1328,13.397260904312134,-9.618007839560896,-5.104032973250249,-2.071010835240571,11.08360560799438
1329,13.4074068069458,-8.705412162405839,-4.4945857687754325,-1.594946481552172,9.92619546600095
1330,13.417471885681152,-7.651740157977852,-3.618464794577876,-1.1939855160752406,8.54798317308872
1331,13.427639961242676,-6.532123878054751,-2.554340883014817,-0.8924229321801315,7.0703407552093935
1332,13.439079999923706,-5.422675798844994,-1.3978046896100382,-0.7096603053704928,5.644722182596195
1333,13.447731971740724,-4.393533201478836,-0.2525668083805043,-0.656989835218571,4.449557239633277
1334,13.457807064056396,-3.5033528814901267,0.7797669979170632,-0.7324816588288631,3.6630652961428964
1335,13.475957870483398,-2.7949542865976675,1.611088338712278,-0.9163168766166937,3.353656469836757
1336,13.477946996688845,-2.292073955129216,2.177759581865815,-1.1701415918618585,3.371271445196168
1337,13.489174842834473,-1.9977267075005456,2.448460596078794,-1.4424546049633664,3.47369350631162
1338,13.498136043548584,-1.8946745262659073,2.427004606172474,-1.6786662279503068,3.506859453089653
1339,13.508111000061035,-1.948005903087191,2.1499695186723233,-1.8326650030217813,3.4315822797921474
1340,13.51859998703003,-2.1094283937188387,1.6796882337169075,-1.877152863645449,3.2855355095032186
1341,13.528254985809326,-2.322826686510734,1.093449119075316,-1.8099502624038657,3.1411900203503835
1342,13.53973913192749,-2.530734020269632,0.47103420748403935,-1.652787710157829,3.0591167223267193
1343,13.548666000366213,-2.681333424465432,-0.1163416615576768,-1.441662246880182,3.04655122219357
1344,13.558627128601074,-2.7352838119982645,-0.6136302016555502,-1.21374806532469,3.05475104102495
1345,13.570022106170654,-2.6711302867898956,-0.9858466007291505,-0.9981753025612823,3.017148399369643
1346,13.578866004943848,-2.4877740973285443,-1.218810472030985,-0.8132885630220262,2.8872057794368726
1347,13.593042850494385,-2.203020050491485,-1.3171091721999453,-0.6677309944300899,2.6521573473840743
1348,13.598939895629885,-1.8484887605544036,-1.2997134554421554,-0.5624725415415144,2.328635034551682
1349,13.609027862548828,-1.4623583724289684,-1.1942342781743542,-0.4930121054006912,1.9513452940603169
1350,13.618982791900637,-1.0818910010654865,-1.0311782671537342,-0.45174804024330784,1.5613753708510736
1351,13.629179000854492,-0.7374802737524011,-0.8392925789493779,-0.4301817781926878,1.1972241016378
1352,13.640541076660156,-0.4492385870051256,-0.6424873878989088,-0.4204766670785697,0.8896100152432116
1353,13.649363994598389,-0.226267071337586,-0.4583481161909347,-0.41623088936048674,0.6591873303130822
1354,13.659406900405884,-0.0680627560313435,-0.29799017830902025,-0.412673676781469,0.5135467346167827
1355,13.670427799224854,0.032831737840574415,-0.16684606013968498,-0.4065062076900334,0.44063911274908424
1356,13.679635047912598,0.0878432579506865,-0.06591284806541348,-0.39552638109517885,0.410490023812679
1357,13.692593097686768,0.10971202286044197,0.006916409910636887,-0.3782186868261924,0.39387046062215875
1358,13.699748992919922,0.11047857527460204,0.05563167353330945,-0.35351194218895715,0.3745278253548476
1359,13.709772109985352,0.10015748480069098,0.08505624348292888,-0.320789062286715,0.34665791322255696
1360,13.719921112060549,0.0860605701635852,0.1000106078712681,-0.2800677380395501,0.30959082886004874
1361,13.729965925216677,0.07274835514021152,0.1047611447243903,-0.23219638919602328,0.2649195798261089
1362,13.741297006607056,0.06252103627850995,0.10279090374215424,-0.17894413631697642,0.21562897252386148
1363,13.750059127807615,0.05621426021357751,0.09682993938419995,-0.122928365590839,0.16627526358223765
1364,13.760239124298096,0.05400131648298703,0.08901703507445893,-0.06736268380596858,0.12400768478157342
1365,13.771564960479736,0.05597592497586356,0.08107973907340588,-0.01563954170094839,0.09975882682615503
1366,13.78042197227478,0.062417611218289384,0.07446772463965541,0.029175685748664325,0.10145255463570092
1367,13.792917013168337,0.07376486538494141,0.07041665524961342,0.06479502377336345,0.12082282817246157
1368,13.800565004348757,0.09041589512702468,0.06995790495732021,0.08996321050546674,0.14547344019472935
1369,13.810598850250244,0.11249227589695547,0.07390706833445773,0.10446592529284036,0.17038161999922485
1370,13.82077693939209,0.1396357875600198,0.0828456271489499,0.10893512628352515,0.19552087572332877
1371,13.830790042877195,0.17087946704035362,0.09710066074158655,0.10454934334657,0.22261827365840153
1372,13.842083930969238,0.2046895549680135,0.11676017816942708,0.09273682468356186,0.2532407387675796
1373,13.850933074951172,0.23926502354130277,0.14176997807971492,0.07496440029208708,0.2880384340432632
1374,13.86108112335205,0.27301922001606266,0.17208689983734346,0.05265603253127837,0.32699549439669984
1375,13.87440299987793,0.30501603668031574,0.20778660358710094,0.027252000511724456,0.3700712455653935
1376,13.881195068359377,0.33514199632710584,0.24902831717336296,0.00037764484159499276,0.4175349123988811
1377,13.892412900924684,0.36391681036023116,0.29584234864114795,-0.02597993738167405,0.46971597509413143
1378,13.901758909225464,0.3919850338995785,0.34777461872785403,-0.0494453590950416,0.5263499746068158
1379,13.91140079498291,0.4194658919999726,0.40348903542729064,-0.06748740655919222,0.5859262635395889
1380,13.92151689529419,0.4454260887888128,0.46048256738744275,-0.07786701835751003,0.6453773066891327
1381,13.931518077850342,0.46770048823133376,0.5150619780097638,-0.07913558636012306,0.7002107032256212
1382,13.943077087402344,0.4831273137616582,0.5626527110414352,-0.0710042960770177,0.745004486299395
1383,13.952023029327393,0.4881105737219885,0.5984172587241614,-0.05445662417910255,0.774158040476964
1384,13.961979866027832,0.4793505947332162,0.6180957285274807,-0.03155724465482352,0.7828251286112433
1385,13.97471809387207,0.4545678050202588,0.6189319569125649,-0.0050065103900924475,0.7679412228776621
1386,13.982013940811155,0.41305699818332886,0.6005202906109195,0.022436913383606306,0.7292078704085887
1387,13.993165016174316,0.3559629398997129,0.5654372299219724,0.04851470725409066,0.6699123467916009
1388,14.00206995010376,0.28626300499418905,0.5195984451447618,0.0718704568526673,0.5975737735153446
1389,14.01221799850464,0.20853621945478815,0.4723541047936153,0.0922037014856272,0.5245066993924138
1390,14.022409915924072,0.12864588423026785,0.4363712919740028,0.11016472269480708,0.4680875282624732
1391,14.032352924346924,0.05345362895222354,0.4273433491842932,0.1270563609789512,0.4490244396527034
1392,14.043744087219238,-0.009372219575325294,0.4635181146193779,0.14444640281206214,0.48559411483811804
1393,14.052551984786987,-0.05147299124782083,0.5649731386844951,0.1637880564529377,0.5904833983268613
1394,14.06267786026001,-0.06393792372742917,0.7525229467283783,0.18611342632844677,0.7778284199635871
1395,14.07521390914917,-0.037600409587151044,1.0461550388272138,0.2118165464855294,1.0680451326745266
1396,14.082854986190796,0.03638714815201923,1.4629596353799537,0.24050899967128325,1.4830439974001328
1397,14.094167947769163,0.16563870537251132,2.0146233822036317,0.27092879961395555,2.039496498476852
1398,14.102988958358765,0.35530952283295036,2.704693859179932,0.30088493885586626,2.744475446297837
1399,14.11306381225586,0.6067069647262087,3.5259761415807973,0.32722410600585444,3.5927255263372992
1400,14.123157024383543,0.9160060369884,4.458554193477739,0.34583932587199523,4.564797629172264
1401,14.13319206237793,1.2734238523801398,5.468990490493133,0.35178849754688846,5.626297222856369
1402,14.144540786743164,1.663221727409872,6.511186721196916,0.33961723277583217,6.728833397968598
1403,14.153480052947998,2.0648169436509183,7.529163994917869,0.3039577913938891,7.813076846678559
1404,14.163512945175173,2.4550672024513345,8.461669551693216,0.2403960015947606,8.813909280687374
1405,14.173606872558594,2.811483976530149,9.248057591583164,0.14652808239970577,9.667082385417872
1406,14.183732986450195,3.115846859872754,9.834495320901537,0.023136781164840053,10.316314030779395
1407,14.195316791534424,3.35748990096692,10.179501156052451,-0.12461482574162426,10.719632040138443
1408,14.20390510559082,3.5354607433839442,10.258090827698322,-0.28630047238040357,10.854025891705005
1409,14.213828086853027,3.6589505320386877,10.064115109295667,-0.4462240705079996,10.717903146145716
1410,14.223991870880129,3.74591872537105,9.610675179570595,-0.5846982591474887,10.3314498768832
1411,14.234018802642822,3.8204249987745236,8.928804732561565,-0.6805003126676685,9.735619230383648
1412,14.245325088500977,3.909387992733739,8.064744169898166,-0.7140106564111086,8.990729904802269
1413,14.254349946975708,4.039211691307656,7.076061300131288,-0.6704767522701469,8.175292880731972
1414,14.265599012374878,4.232362940992896,6.0267575168276295,-0.5428588103128966,7.384402339990875
1415,14.27518391609192,4.503987723512164,4.981443354441362,-0.33365871864412133,6.7239877637889505
1416,14.284985065460203,4.858955734911166,3.9988195301479865,-0.055108912429110195,6.293095062109597
1417,14.29593300819397,5.289909681751356,3.125297743330974,0.2727188656616108,6.15020373688906
1418,14.304768085479736,5.776801478010548,2.39032867561921,0.6256837060985456,6.283039598308254
1419,14.314738988876345,6.288233267892382,1.8049188007127825,0.9799651225929694,6.615129715288554
1420,14.324834823608398,6.784806363460353,1.3636039054360363,1.3153108848946173,7.044363400939418
1421,14.33544397354126,7.224367816207769,1.0487902839078194,1.6163350749381897,7.476897115645868
1422,14.346549987792969,7.568332997204513,0.8359053899683495,1.8724223220827607,7.841196817437156
1423,14.355218887329102,7.787554064795654,0.698182229766566,2.0769994743807625,8.089955720191247
1424,14.366311073303224,7.8661689492294675,0.6104804522260456,2.2264627638161856,8.197953205467321
1425,14.375236988067629,7.80257319501978,0.5518997078058303,2.319022695834921,8.15859105574699
1426,14.385355949401855,7.60758933732031,0.5071063491535323,2.353880835558696,7.979556839992557
1427,14.396580934524536,7.300649530851434,0.46648871074534876,2.33093771256386,7.677914163978819
1428,14.40546703338623,6.905205142528317,0.4255028962964818,2.2508980075725997,7.275263061611621
1429,14.415568828582764,6.44456352391893,0.38369662004561395,2.115534448281665,6.793755081832669
1430,14.425650119781494,5.938978088250246,0.34381145421150655,1.9279440045147016,6.253529813897729
1431,14.435590982437134,5.404275457947027,0.31113704455048163,1.6926995432462513,5.671704437782899
1432,14.44720983505249,4.851810586490456,0.29304606982620235,1.41582222992773,5.062656866999676
1433,14.45586109161377,4.2892511899402255,0.29849092008422995,1.1045328955940292,4.439230284320211
1434,14.467039108276367,3.721652596842853,0.33726660631385635,0.7668025823952778,3.814765132441273
1435,14.475998878479004,3.152426355820732,0.4190009572985447,0.41077127064532976,3.206569314372895
1436,14.48594093322754,2.5840052789104355,0.5519894991147316,0.044122608747891506,2.6426733610442
1437,14.497378826141356,2.0181585943977076,0.7420483483026863,-0.3264920806872256,2.17490159366155
1438,14.506287097930908,1.4559879937684836,0.9915182832429054,-0.6959010200304591,1.8940136677654589
1439,14.516313076019289,0.8976870711230079,1.2984731699126066,-1.0606884549442719,1.9018240321061157
1440,14.526443004608154,0.34221295420935793,1.6561206911085926,-1.4192783605773418,2.2077582554142574
1441,14.536611080169678,-0.21292928461581057,2.0523864824212525,-1.7717778463969192,2.7197106262349657
1442,14.54795789718628,-0.7716092189230706,2.4697619342416712,-2.1195142548057433,3.344763889257503
1443,14.55694580078125,-1.3386232940040361,2.8855944883809888,-2.464261207223471,4.023822954859152
1444,14.574793815612791,-1.9189352469363201,3.2730009317947477,-2.807283746555753,4.719712874226562
1445,14.576991081237791,-2.5167652149816493,3.602483655822597,-3.1484470878790947,5.405988781248526
1446,14.586985111236572,-3.134710752408381,3.8441965591155776,-3.4856122569343047,6.062487236446063
1447,14.598231792449951,-3.7730331817783678,3.9706751884987974,-3.8143768636765385,6.674691880642238
1448,14.607165813446043,-4.4291766438246745,3.9597216584791353,-4.128086004723883,7.23450726844807
1449,14.617228984832764,-5.097550239181318,3.7970321036786103,-4.418092415461286,7.740930940713789
1450,14.627295970916748,-5.769597530963301,3.478089453067051,-4.674344876542187,8.199686697532428
1451,14.637412071228027,-6.434189648187588,3.0088985321446557,-4.886256716564907,8.621355549202356
1452,14.64874792098999,-7.078364247510927,2.4054253603964515,-5.043527923372795,9.018119842778784
1453,14.657647132873535,-7.68831333729908,1.6920214702771552,-5.136604376908404,9.399883145722843
1454,14.667605876922607,-8.250326078196082,0.8993485024758257,-5.15688792014443,9.770885381908817
1455,14.677661895751951,-8.751317565199587,0.06221339151046115,-5.097133907386799,10.127694885949431
1456,14.687992095947266,-9.178766388852672,-0.7825277116884037,-4.952217598657879,10.458803047440401
1457,14.69919204711914,-9.520225153526466,-1.5979855006947794,-4.719923988344841,10.745507297937209
1458,14.7080078125,-9.762802819650945,-2.349139644876425,-4.4012675744701495,10.963664178941132
1459,14.718379020690918,-9.89301073525051,-3.0044894219379263,-4.000221506168091,11.086044839920522
1460,14.728158950805664,-9.897181411470035,-3.53724933604868,-3.5231940740488707,11.085090402894236
1461,14.7381911277771,-9.762451241838546,-3.9259175899200227,-2.9787154060681034,10.9357683151421
1462,14.749752044677734,-9.478113767544711,-4.154176895201031,-2.3775676421731293,10.618128562051382
1463,14.758412837982178,-9.037007645160244,-4.210314584679138,-1.7332290015024021,10.119206433920379
1464,14.775134086608888,-8.436603225486492,-4.086609010372194,-1.0622483899631927,9.434247125760681
1465,14.77837610244751,-7.679741042680467,-3.7792438907191843,-0.3842317899393667,8.567890109972767
1466,14.788623809814451,-6.775411925900549,-3.2891424423483158,0.2785259980047992,7.536726179400244
1467,14.799901962280272,-5.740094471004299,-2.623742760680244,0.9014839918664479,6.3753732438083635
1468,14.808679103851318,-4.599748670109791,-1.7993683216527925,1.4582643523888585,5.1499465149254195
1469,14.818742990493774,-3.3918924621550817,-0.8435944962170634,1.9213182865733673,3.9884897025306967
1470,14.828879833221436,-2.1667028977819536,0.20308989437384856,2.2633579746938404,3.1398465367058463
1471,14.83901309967041,-0.9860166976461129,1.2869359106380436,2.4599044851717853,2.9461098150433878
1472,14.850260972976685,0.08046370560158475,2.342271355770347,2.492650571661174,3.4214056152967567
1473,14.859106063842772,0.9615698288835659,3.294672933754301,2.3524566788155763,4.160954061502765
1474,14.875032901763916,1.5925746414977326,4.066067032767371,2.0408160104247948,4.820178948141393
1475,14.879211902618408,1.9231657235261255,4.581891587099277,1.5700799913398336,5.211280849779888
1476,14.88930892944336,1.9242732594560779,4.78033262715982,0.9639577502730213,5.242482441330428
1477,14.90075397491455,1.5928435925030306,4.622977085670236,0.258918928620785,4.896540294576178
1478,14.90955686569214,0.9539013076470543,4.104846738590554,-0.49500166043651245,4.243197037126979
1479,14.91960096359253,0.059750173742136786,3.260548611580414,-1.2363503469711523,3.4875936564050676
1480,14.929664134979248,-1.0132586120879739,2.163648435126721,-1.8986259562604886,3.0516959362922793
1481,14.939878940582275,-2.169969232144933,0.9184303652354222,-2.420650099089169,3.3781396813131552
1482,14.951750993728638,-3.30379135439947,-0.3544654216997877,-2.7591488906343375,4.318979700030343
1483,14.960017919540403,-4.3064969022634,-1.5353107629417322,-2.899483163928503,5.413880062017797
1484,14.975066900253296,-5.080153661490094,-2.5215233780692663,-2.859200089795754,6.3514617627747
1485,14.98002004623413,-5.549916916688344,-3.2397904928524293,-2.681368021809471,6.963300559943028
1486,14.99013090133667,-5.675356563900514,-3.6527731446615874,-2.419989644994875,7.169991189370596
1487,15.001655101776125,-5.457276048601873,-3.7602348694062115,-2.1246743917790605,6.9595595704630435
1488,15.010275840759276,-4.9373941642961165,-3.5949255000301887,-1.8317285587724594,6.376251249552144
1489,15.020364999771118,-4.19023967502727,-3.214198359445218,-1.5631788691746569,5.507513758953956
1490,15.030459880828856,-3.3092762280959285,-2.689112327702476,-1.3299093528508807,4.466687044291607
1491,15.040587902069092,-2.391059360884154,-2.093191339606668,-1.135059931548003,3.3744593492412758
1492,15.052164077758787,-1.5212506086842241,-1.4928786906876943,-0.9766458521089799,2.3445100383605104
1493,15.061909914016724,-0.7649598338022329,-0.9409965627956167,-0.849695112726037,1.4807497638407436
1494,15.074575901031494,-0.1622335089880965,-0.47354373279769457,-0.7478991466094191,0.8999536164767952
1495,15.08080005645752,0.271676919339708,-0.1094942208533581,-0.6646675633259612,0.7263472328300487
1496,15.090989112854004,0.5423644844026274,0.14706891028520852,-0.5938083514497352,0.817555414981308
1497,15.102377891540527,0.6702537282836036,0.3034202722009984,-0.5300382423612172,0.9067769627785914
1498,15.111150979995728,0.6842920621944387,0.37431708229103905,-0.46927969778550643,0.9102704758646467
1499,15.1211519241333,0.6166628084848945,0.3785880884512516,-0.40870908033953557,0.8310505835613374
1500,15.131263971328735,0.4990276285599876,0.33651048460689204,-0.34663957326608263,0.6945695602822386
1501,15.141324043273926,0.360126236389908,0.26792224376119983,-0.2823094856270402,0.5302564290165652
1502,15.152988910675049,0.2242950528284811,0.19087575947055807,-0.21560372651849583,0.3650024563827699
1503,15.162575960159302,0.11054602542762289,0.12065256447406925,-0.14677802901710899,0.2198209609071923
1504,15.17478084564209,0.03203807952509688,0.06903517400768522,-0.07630028087635225,0.1077683935657299
1505,15.181612014770508,-0.0040887455602986724,0.04382111676214903,-0.004859497301790122,0.044278920815269046
1506,15.191915035247805,0.0035008850362336034,0.048622336192280576,0.06652627081790784,0.0824750415687661
1507,15.2032208442688,0.05093610334589321,0.08299271733657859,0.13641622155168268,0.167605677879392
1508,15.21193504333496,0.1300921793313749,0.14288328456229554,0.20294056317052256,0.28022219810440674
1509,15.222000122070312,0.22983247183385958,0.2213791528817105,0.26391015884873475,0.4141017584887198
1510,15.2320818901062,0.3374427578988072,0.3096466290302448,0.31704275767143647,0.5570141469658165
1511,15.242286920547484,0.44011805191328757,0.39799783501598335,0.360254430417289,0.6941825631148066
1512,15.253585815429688,0.5263282794243733,0.4769488127360569,0.3919045374737108,0.8112279545137967
1513,15.263564109802246,0.5869088698183614,0.5381376643821031,0.41090872045693017,0.8960469540407148
1514,15.277771949768066,0.6157921401872573,0.5750170128934866,0.41674262072291,0.9399568803728978
1515,15.282423973083496,0.6103565222558567,0.5833098867299926,0.40941578701556874,0.9382999493098134
1516,15.292634963989258,0.5714010535319406,0.5612670311951063,0.38945540840876003,0.8906151578671981
1517,15.303820133209229,0.5027819525897943,0.5097726592106255,0.35788067053343176,0.8004601365902848
1518,15.312741994857788,0.4107858866002844,0.43233744517899486,0.31612520790487947,0.6749784131413281
1519,15.322906970977783,0.30334371737548316,0.33502251564560076,0.265893610796981,0.5243633369366514
1520,15.332993030548096,0.18920281897427638,0.22634593123581995,0.20901128510622732,0.3615465455464621
1521,15.343147993087769,0.0771734125185426,0.11718624580090647,0.14738681540954254,0.2034974819530556
1522,15.354509830474854,-0.02446386955486905,0.020614465077667322,0.08318332289085541,0.08912296163840339
1523,15.364444971084597,-0.10835713144105372,-0.04847622957432167,0.019179609288539637,0.12024587385992572
1524,15.379199028015137,-0.1683210762399675,-0.074052443200574,-0.040832763861742824,0.18836948705972537
1525,15.383248805999756,-0.19948864273059289,-0.03995290458947054,-0.09183637848301766,0.2232170996507784
1526,15.393488883972168,-0.1984506771596909,0.06884026461730675,-0.12776630506193035,0.24585744244764876
1527,15.4049711227417,-0.16340472666608447,0.2647984861809095,-0.14219595241988273,0.3421096781225528
1528,15.413607120513916,-0.09424496045150547,0.556484828410122,-0.12945324809211667,0.5790644353288742
1529,15.423712015151978,0.0075356274780446954,0.9474344740875091,-0.08589190521723253,0.9513497189534503
1530,15.43384885787964,0.13920886375204528,1.4354366625995425,-0.011004677101879374,1.4422130990253017
1531,15.44395399093628,0.2973565731365052,2.0122629237086085,0.09182705251313669,2.036186438736162
1532,15.455550909042358,0.478372798944209,2.663765692680821,0.215064845746041,2.7149108803326896
1533,15.464143991470335,0.6787178285693914,3.370208676609289,0.3473143136981474,3.4553714195741825
1534,15.480255126953123,0.8948728986977098,4.106712180700758,0.47420305547530467,4.229745970831077
1535,15.484091997146606,1.1231067885893524,4.843796095504357,0.5797097866967136,5.005975720096002
1536,15.494269847869871,1.3592505318673604,5.548149908624607,0.6477732182808957,5.748838105154373
1537,15.505632877349854,1.5986255148083246,6.183885802258883,0.6640354693982996,6.421603402312712
1538,15.51448392868042,1.836081011848226,6.714522990259872,0.6175258804329294,6.988372534560707
1539,15.52443790435791,2.0659506023867915,7.105734391335168,0.5020654338684437,7.416986101617774
1540,15.535115957260132,2.281840995028213,7.328557733703119,0.31736875152036864,7.682140307704145
1541,15.544708967208862,2.4764493673324006,7.3625438523242375,0.07001179310007062,7.768188662586121
1542,15.556292057037354,2.6417893973624555,7.1982987352386685,-0.22577565509371525,7.67108405299983
1543,15.56505298614502,2.7701200736454816,6.839026706585446,-0.5479977926888611,7.399064339265776
1544,15.580059051513672,2.8555626454585337,6.300896087628274,-0.8681199436608656,6.9720270915860025
1545,15.585402011871338,2.896063616700942,5.6122457507004455,-1.1538553875429305,6.41995865201607
1546,15.595179080963137,2.8952086369662027,4.811792057981729,-1.3730131291476204,5.781067454513178
1547,15.606549978256226,2.8634203534001657,3.9460431188342775,-1.497488065390076,5.100284592250847
1548,15.615251064300535,2.818162275011347,3.0660703950571726,-1.506620487840547,4.428626375087886
1549,15.62534999847412,2.782875671967042,2.2237180794302507,-1.3896015747944956,3.8236516105788616
1550,15.635474920272827,2.7845579654348542,1.4673503016502725,-1.1469061438593946,3.349966219746442
1551,15.645445823669434,2.850156251663852,0.8373600001111019,-0.7907029829374691,3.074048411445535
1552,15.656825065612791,3.0021796846593487,0.36189832216574525,-0.34401036081368624,3.0434185356133407
1553,15.665709018707275,3.2540626936502854,0.05359761201201981,0.16167004904378215,3.258517135596767
1554,15.6804780960083,3.6059676850293165,-0.09177536890959159,0.6901770627674049,3.6725699505638314
1555,15.685542106628418,4.041996731901917,-0.09409552630749166,1.2051805198976322,4.218892228336437
1556,15.695873975753784,4.5299641004467075,0.014803887842472968,1.6740244270620466,4.829404900071189
1557,15.70720911026001,5.0245670176315755,0.19639117044474025,2.070145497335755,5.437862225786823
1558,15.716087818145752,5.473824900527533,0.41105387671733146,2.37437952502525,5.980752666684916
1559,15.726001977920532,5.827422358411188,0.6230290889579169,2.575689121865512,6.401655336043536
1560,15.736102104187012,6.044836643356589,0.8040359338203664,2.6712517308889705,6.657485233743914
1561,15.746280908584597,6.101291328909417,0.9353970015281092,2.665634849327003,6.72356546637568
1562,15.757832050323486,5.990405386196483,1.0086544193945886,2.5691703611014276,6.595678643862064
1563,15.766511917114258,5.723384798715536,1.024803323559812,2.3959702453829705,6.28872235218791
1564,15.780972957611084,5.3254231702065455,0.9924057601646645,2.162015459754705,5.832607648625021
1565,15.786553859710692,4.830488640503618,0.925005147902392,1.883562539939639,5.266598795384388
1566,15.796705961227415,4.275767081097143,0.8383375221348475,1.5759478449122974,4.633422659621815
1567,15.80792999267578,3.6967626503640574,0.7477909426638986,1.2528084361470013,3.9742640028988947
1568,15.816787958145142,3.1236565422730975,0.6664442819418009,0.9257241028846055,3.3254087402423114
1569,15.826905965805054,2.5791731687089925,0.6038735412833247,0.6042171187150415,2.716960767953552
1570,15.837052822113035,2.077928466851983,0.5657716093947862,0.29594168219416184,2.173813631986631
1571,15.8470139503479,1.6270089206128941,0.5542927265065266,0.0068705417811939125,1.7188500978143328
1572,15.860180854797363,1.2273554050909579,0.5689087413674182,-0.2586160204912038,1.377294700659578
1573,15.867301940917969,0.8754507492215607,0.6074784067267184,-0.49770998707171626,1.1760779141633229
1574,15.881700992584229,0.5648803104967345,0.6672356581611671,-0.7091545677323531,1.125696846244278
1575,15.88745093345642,0.2875280098728565,0.7455087739710087,-0.8931916401393073,1.1984352275129215
1576,15.89754581451416,0.03438690286292744,0.8401179157296702,-1.0514814735681686,1.346326060312121
1577,15.909133911132812,-0.20389599502198796,0.9494695351847809,-1.1869756832078748,1.5336157431236848
1578,15.91774296760559,-0.4365874430756844,1.0723556350926364,-1.3036634814781547,1.7435864407897987
1579,15.927867889404297,-0.6724392622798405,1.2074522969712855,-1.4060810246680229,1.9715931271051252
1580,15.937861919403076,-0.9192237046684552,1.352570115415605,-1.4985432401292957,2.2181185673622115
1581,15.947937965393066,-1.1832385371859742,1.503821224903328,-1.5842164770327698,2.4842048141113224
1582,15.960939884185793,-1.4687933900572676,1.6549556760329482,-1.664297834177694,2.768775829343747
1583,15.975950956344604,-1.7776893725630745,1.7971270513600688,-1.73760946797803,3.0674308153992205
1584,15.982903003692629,-2.108735330295382,1.9192628218892305,-1.8008368724736465,3.3724394603881107
1585,15.988292932510376,-2.4574006109008226,2.009063793432771,-1.8494728801741873,3.6736500953463187
1586,15.99848198890686,-2.8157556979209573,2.0544862950908658,-1.8793103754039808,3.9599496933915184
1587,16.009805917739868,-3.1728773424599375,2.045422073180188,-1.8881139740082353,4.220885744318785
1588,16.01883101463318,-3.515864355768168,1.9752187925375047,-1.8769912507281685,4.448133046780922
1589,16.028624057769775,-3.831470260452358,1.841691163065931,-1.8510301590852747,4.636626289306618
1590,16.038650035858154,-4.108106629743034,1.6473717312354204,-1.81893607917219,4.78527973710279
1591,16.048707962036133,-4.337726307136868,1.3989573731982785,-1.791641940886625,4.897237189681246
1592,16.061325073242188,-4.517023961638606,1.106179431137162,-1.7801589961611486,4.979568701755377
1593,16.076274871826172,-4.647568994655367,0.7805125390513404,-1.7932598334542356,5.042308817791566
1594,16.08291006088257,-4.734854358604221,0.4340840101040072,-1.8357798568674941,5.096799231665085
1595,16.088983058929443,-4.786636354786503,0.07888544820332724,-1.9080884230982764,5.153533927050808
1596,16.099138975143433,-4.811158640091524,-0.2738452327553186,-2.0066509287096186,5.220046611029571
1597,16.110279083251953,-4.81579239943527,-0.6142318226019827,-2.1251499383210444,5.299565965878848
1598,16.11924695968628,-4.806343109642497,-0.9343907064072212,-2.255701732715778,5.390937802164393
1599,16.129336833953857,-4.786968404529592,-1.2289823109884521,-2.389960202597609,5.48975170628759
1600,16.139419078826904,-4.760497465257262,-1.4955284466014322,-2.519986039952675,5.590104747933734
1601,16.149423122406006,-4.728943534632764,-1.734383581870804,-2.6387600688022097,5.686303550067747
1602,16.162023067474365,-4.694038304474697,-1.948335339440885,-2.7403024747140075,5.774016267011518
1603,16.175950050354004,-4.657614351005385,-2.1418669086266315,-2.81948422389162,5.850680010540215
1604,16.18195390701294,-4.621640787129674,-2.3201183417182714,-2.8716809933885985,5.915155485076234
1605,16.189804077148438,-4.5877436036548795,-2.4875828158882247,-2.892407401580349,5.966697597121496
1606,16.199814796447754,-4.556175774163724,-2.646626534220344,-2.877029908033563,6.0033882756686
1607,16.211111068725586,-4.524442083833743,-2.7960317423264014,-2.8206444476236583,6.020332613234323
1608,16.22022294998169,-4.4860255343345194,-2.929871386289556,-2.7182186099121473,6.008101517632032
1609,16.230167865753174,-4.429757185305495,-3.037044507635983,-2.5650817497164526,5.951977187864212
1610,16.24025011062622,-4.340244592565161,-3.1016818896567986,-2.35777685229361,5.832432198759592
1611,16.25029706954956,-4.199471247806666,-3.10440881702549,-2.095200443125606,5.626968789788532
1612,16.261600017547607,-3.9893306850844583,-3.024244137196716,-1.7798772091472648,5.313075831942077
1613,16.275733947753906,-3.6946165613802093,-2.8408453060709005,-1.4191569230559804,4.871816905519717
1614,16.281799793243408,-3.3059480341745817,-2.536908945550031,-1.0261025688107674,4.291629746890406
1615,16.29060983657837,-2.822235875019489,-2.1006827399939763,-0.6198389153341071,3.572405854507321
1616,16.300705909729004,-2.252444750683593,-1.5285536583105774,-0.2250995655109261,2.7314196776786117
1617,16.3118999004364,-1.616447934379278,-0.827522039595476,0.12932829580903954,1.8205555357286305
1618,16.320942878723145,-0.9447103883857872,-0.01719731610248252,0.4135412257515651,1.0314018668788905
1619,16.331040859222412,-0.27649480701575335,0.8691280067774888,0.6010391973713608,1.0922824667861784
1620,16.341065883636475,0.3435873397736799,1.7847419559202156,0.674614859097327,1.9386751448836335
1621,16.351202964782715,0.8703793158652248,2.671409895095834,0.6319634677197131,2.87982096763571
1622,16.362435817718506,1.263300998010003,3.4630673715356473,0.4875747721218807,3.7183994123517166
1623,16.37622880935669,1.4905135740083135,4.091485311918132,0.26830179747484434,4.36278221167102
1624,16.3823459148407,1.5317072505399536,4.494161311954472,0.0045613963236147935,4.74801366947921
1625,16.391451835632324,1.3802569632376738,4.6242841409872915,-0.2769453986304664,4.833819592721189
1626,16.402014017105103,1.0455545494828589,4.461283569073389,-0.5548186884986127,4.6156320452063575
1627,16.41273784637451,0.5551204577148803,4.018687651787706,-0.8106207620737632,4.137041839903195
1628,16.421788930892944,-0.045121319346304124,3.3453185420915186,-1.0277780465126067,3.4999313985297116
1629,16.431790828704834,-0.6940398702676693,2.517854192197877,-1.1939893872157652,2.871740192195921
1630,16.441944122314453,-1.3224134364845475,1.6268131930356597,-1.3043324959239317,2.469125699909363
1631,16.452215909957886,-1.862896297392735,0.7608960944702301,-1.361360902342288,2.429536784624966
1632,16.46332597732544,-2.260591455419267,-0.005788804241637663,-1.37212561837455,2.6444349020478626
1633,16.476370811462402,-2.4815244473260574,-0.6215345879262152,-1.3450489180275713,2.890229302071489
1634,16.48265790939331,-2.516920709441248,-1.0598929677502287,-1.2885752333257108,3.0197167239065705
1635,16.492326974868774,-2.3825701599595797,-1.3184125234738415,-1.2109315141480226,2.980135446777428
1636,16.502212047576904,-2.1138582141038333,-1.4142406949546245,-1.1197532377263102,2.7789063686994817
1637,16.513669967651367,-1.7578829569082013,-1.377785410417913,-1.0214493994881355,2.455973127512484
1638,16.522531986236572,-1.364559395329582,-1.2458497399133206,-0.9208195368965946,2.0644787568184815
1639,16.53254199028015,-0.9786439301450659,-1.0555058008630116,-0.8211868545817864,1.6571615153035555
1640,16.54271411895752,-0.6341226752865439,-0.8395209114863866,-0.7248878590480139,1.2776421002497962
1641,16.552663803100586,-0.35162630843040155,-0.6236608862775567,-0.6337831230204964,0.9561772894597074
1642,16.564106941223145,-0.13874692566193744,-0.4257814141464965,-0.5495593583168679,0.7089118494755727
1643,16.57617497444153,0.007483405541441524,-0.25631227338520013,-0.47376564741812227,0.5387075937091473
1644,16.582904815673828,0.09701458963068736,-0.11958561559566536,-0.4076310459020116,0.4357471969408097
1645,16.593059062957764,0.1431454281009994,-0.01547493358314567,-0.3517980846527749,0.38012100641898516
1646,16.60316801071167,0.15958636882965682,0.05904092247080313,-0.306144953520522,0.35025472474831976
1647,16.614519119262695,0.15853701286264305,0.108584238960308,-0.2697899178576489,0.3312266915205296
1648,16.623315811157227,0.14970666762391566,0.13840315841049236,-0.24126345863702986,0.3158727228846442
1649,16.633352994918823,0.1400074638458995,0.15367798735968924,-0.21879885022776852,0.3018144307227193
1650,16.643537998199463,0.13365443399356686,0.15904128003949683,-0.20069044206972078,0.2888499437785687
1651,16.654698848724365,0.1324991838927433,0.15825914990710702,-0.18564329831312976,0.27760660379418367
1652,16.664867877960205,0.1364965286337699,0.15405922444640077,-0.17301686604747102,0.26888730520979337
1653,16.67556595802307,0.14423665157988516,0.14811490385156248,-0.162881243386183,0.2631967626111001
1654,16.683777809143066,0.15349274816251127,0.14119256461233554,-0.1558489007099478,0.26035407408524996
1655,16.693826913833618,0.1617490255643683,0.13344723655869162,-0.1527177414647653,0.25941014007604435
1656,16.704052925109863,0.16668529693691492,0.12482523362863579,-0.15405678874048348,0.2590344018126182
1657,16.71530294418335,0.16660186990507345,0.11550710798357892,-0.15991498712610652,0.25820704513653375
1658,16.72414493560791,0.1607743440108839,0.10630216137378075,-0.16976588849749097,0.25684430323098445
1659,16.73410201072693,0.14972029844790255,0.09888940175001451,-0.18265787064276134,0.256045267977271
1660,16.744308948516846,0.1353108268408638,0.09580289228436,-0.1974396742871996,0.2578170650151816
1661,16.755507946014404,0.12059231227959887,0.10009773643671481,-0.21292798197516238,0.26438681534582886
1662,16.765974044799805,0.10920667858621194,0.11471727201010151,-0.2279340315722571,0.2775609372625307
1663,16.77583885192871,0.10447305902204232,0.14170420678060572,-0.2411320502416571,0.29856216762089743
1664,16.785040855407715,0.10841617045249329,0.1815071200318764,-0.2508469032866975,0.32805955179871815
1665,16.794672966003418,0.12113177346940597,0.23265599247794197,-0.2549307275381162,0.36577505822958034
1666,16.804897785186768,0.1407859486439261,0.2919790695437532,-0.25088850907634513,0.4098993832317358
1667,16.81617784500122,0.16428034488329277,0.3553362643900605,-0.236279444624418,0.4572525215432715
1668,16.825088024139404,0.18831209165431378,0.41864240991798335,-0.20926900214928437,0.5044962105959931
1669,16.83540391921997,0.21039412181712866,0.4788586374406182,-0.1691244178575107,0.5497038747019418
1670,16.845263957977295,0.22946077933405132,0.5346847874088643,-0.11644987361779811,0.5933806907918843
1671,16.856271982192993,0.24588531323446788,0.5868267829150846,-0.05304972917679521,0.6384665489879728
1672,16.866777896881104,0.26095933703070756,0.6378571935250527,0.018530335838622472,0.6894236348294531
1673,16.87598180770874,0.27608165636668636,0.6918168300155485,0.09558678386791893,0.7509783222737841
1674,16.885493993759155,0.2920371281888671,0.7538053072408788,0.1757326853910573,0.8272787330640555
1675,16.895556926727295,0.3087244262868273,0.8297933448468517,0.25711190902051206,0.9219405080038673
1676,16.90555500984192,0.32548508683477867,0.9267179929002765,0.3383265084787049,1.0388510992708972
1677,16.916858911514282,0.3419103883272654,1.0527089966005756,0.41816854169559825,1.1832006906834172
1678,16.925750970840454,0.3588083822453348,1.2171839139028142,0.4953258351584372,1.3622143070782553
1679,16.935688972473145,0.37896522037051855,1.430569737235226,0.5682114464132195,1.5852471918217492
1680,16.94592809677124,0.4074140849396553,1.703513395840679,0.6349573145052295,1.8630928365649286
1681,16.95709800720215,0.4510805122868088,2.0455803086381166,0.6935118231612047,2.206542788281551
1682,16.967322826385498,0.5178444815975253,2.463563207605545,0.7417518656707749,2.6244051545473703
1683,16.97634196281433,0.6151926329486951,2.9596221971254675,0.7775447600609796,3.121282008926847
1684,16.98609495162964,0.7487103029871179,3.529569029847503,0.798744170150388,3.695458957099502
1685,16.996388912200928,0.9207067544013453,4.1616584327448916,0.8031608393500625,4.337299755873742
1686,17.006444931030273,1.129285251577369,4.836185827996902,0.7885767663482075,5.028501949763213
1687,17.017655849456787,1.3681136396041633,5.526047702016649,0.7528468957905179,5.742448657527193
1688,17.026565074920654,1.626993680549442,6.198306845234859,0.6940977550903075,6.445765111905221
1689,17.036711931228638,1.893142825818651,6.816715380893384,0.6110307101746939,7.101053222715181
1690,17.04679584503174,2.152992687694933,7.344988630805261,0.5033531566278554,7.670567117248478
1691,17.05954885482788,2.3942766708969834,7.750384863381858,0.37235679342347694,8.120324863510621
1692,17.068310976028442,2.608127145360389,8.006960407936194,0.22159556655304735,8.423944846432665
1693,17.076977014541626,2.790786187251711,8.09792325354128,0.05748866607006089,8.56552120480278
1694,17.08710479736328,2.944489402382814,8.016840259290106,-0.11040283606641346,8.5411904539081
1695,17.09709095954895,3.0772735126448385,7.767820151392703,-0.26961904725718616,8.35950576330036
1696,17.107342958450317,3.201811029996089,7.364943280373014,-0.40564384351633725,8.041052811833717
1697,17.118870973587036,3.3336350850447887,6.831175739851922,-0.5033646215322685,7.617838329289573
1698,17.12748098373413,3.4891399945663637,6.196909853719021,-0.5491208072577916,7.132834170073345
1699,17.137587070465088,3.6836029194994295,5.498098681319412,-0.533139604448149,6.639447071549114
1700,17.147608995437622,3.9293407476289692,4.77376424713179,-0.4518122644980673,6.199409497728151
1701,17.157705783843994,4.234085292459233,4.06269957511694,-0.3089861448401906,5.87609381640373
1702,17.17670202255249,4.599672273752365,3.3995727429533553,-0.11560367983940704,5.720790511052652
1703,17.178839921951294,5.02110884509389,2.8111884582504483,0.11230359966940467,5.755599593489746
1704,17.187965869903564,5.486030096570165,2.313958545022194,0.35641495101967324,5.964726480389963
1705,17.197930812835693,5.974612593674592,1.9133298688018063,0.5984988257273675,6.301986010436806
1706,17.20820379257202,6.460278161211419,1.6051572971892676,0.8217341625174882,6.707232730626951
1707,17.219759941101074,6.911743305952676,1.3783461219751347,1.0113786013151522,7.120036533230972
1708,17.22839593887329,7.296651990925722,1.2178813671598618,1.1554929620170982,7.487291184829565
1709,17.238348960876465,7.586173797756094,1.1075647079082656,1.2457585827471653,7.7671517893274915
1710,17.24839210510254,7.75926756296932,1.0321517380699365,1.2778663147570237,7.93123651409661
1711,17.258508920669556,7.805361178934758,0.9788422016705846,1.2511967875974828,7.965380630621953
1712,17.27721881866455,7.724823549629469,0.9381351210468023,1.1680203151232864,7.868752622543946
1713,17.27915382385254,7.527351301285732,0.9040795958529244,1.0326042431130311,7.651447513477475
1714,17.288742065429688,7.228973188218759,0.8740342267347101,0.8504727650910782,7.33111813502218
1715,17.298731803894043,6.848655922025066,0.8481145948335003,0.6278994429799495,6.929476460365035
1716,17.308921813964844,6.4054189885899095,0.8284941912487811,0.3716201577890686,6.4694587552589224
1717,17.320239067077637,5.916500707675025,0.8186742619122471,0.08870762730218411,5.9735313855522865
1718,17.329149961471558,5.396653213801912,0.8227993954871518,-0.2134706971109545,5.463189040640783
1719,17.339123010635376,4.858280811876485,0.8450645422387367,-0.5272881218648914,4.959340610510253
1720,17.3492488861084,4.311977463546038,0.8892395642346802,-0.8449536280476406,4.483061820037738
1721,17.359308004379272,3.767050616556713,0.9583468308252864,-1.1587201158812908,4.056073384789917
1722,17.37799096107483,3.231764255557589,1.0545389351734995,-1.4612413831109878,3.700213365336203
1723,17.379934787750244,2.713215395384581,1.1791849113555617,-1.7460723596984205,3.435226851639254
1724,17.3895320892334,2.2169180528053545,1.3330888179670335,-2.008240525261336,3.2748864799783446
1725,17.399590015411377,1.7462744613056487,1.5167002627614872,-2.2447604638180976,3.223166722524595
1726,17.409696102142334,1.3021499788311515,1.7301780819824895,-2.4549614237780903,3.273522010767779
1727,17.42085289955139,0.8827288931322783,1.9732216469861967,-2.6405457845406577,3.4125204771782536
1728,17.429769039154053,0.4837210364441587,2.244654118075048,-2.805364471114397,3.6252624686608335
1729,17.439948081970215,0.09885403328692838,2.541800792015319,-2.9549631779250745,3.8990166412930134
1730,17.458910942077637,-0.2795117807204412,2.8597348580181388,-3.0959918593236475,4.223905288559846
1731,17.460964918136597,-0.6598210007271752,3.1904749282918794,-3.235554484804385,4.591656220275801
1732,17.471434116363525,-1.0509169364979474,3.5222480249998283,-3.380530248231301,4.99386046223162
1733,17.480177879333496,-1.4617850007633915,3.838977557862669,-3.5368682624717738,5.420701170910472
1734,17.490334033966064,-1.9013511605703164,4.120179037135147,-3.7088625867017213,5.860603486065729
1735,17.50026798248291,-2.378214354814376,4.341419341997309,-3.898440821505646,6.300925825566837
1736,17.51050901412964,-2.9002194352126462,4.475426100104694,-4.1045239426657805,6.729623194934477
1737,17.52187204360962,-3.4738245323189565,4.493859766614319,-4.322521347532992,7.137676322390527
1738,17.530833959579468,-4.103258713803583,4.36971054022161,-4.544023867189403,7.521918318043331
1739,17.540717124938965,-4.7894896396445175,4.080224054600803,-4.756757973295943,7.887596957281711
1740,17.5590558052063,-5.5290287035412256,3.6101575432182798,-4.944859867687643,8.249547563503496
1741,17.56102991104126,-6.3126236385335,2.9550736613236204,-5.089560547068118,8.630486898657157
1742,17.572211980819702,-7.1239521797322345,2.1243380953013165,-5.1704656234959705,9.05523173452859
1743,17.581121921539307,-7.938523596739996,1.1434117568148554,-5.167613227114058,9.541057268807494
1744,17.591097831726074,-8.723105613492928,0.054862175693884116,-5.064248686501198,10.086733671570931
1745,17.601131916046143,-9.436124141863248,-1.0825806618179021,-4.849870859525631,10.664598776516273
1746,17.6112859249115,-10.029580966974747,-2.1974406754923304,-4.522787630120333,11.219485186165173
1747,17.622447967529297,-10.452974036545836,-3.211483220956158,-4.091339336188669,11.675502055630371
1748,17.63147783279419,-10.65936379407929,-4.0478044165332445,-3.573287069175391,11.94885507351104
1749,17.64150595664978,-10.613073603278385,-4.639938420752711,-2.993560801598463,11.963601720629471
1750,17.659751892089844,-10.297663581672582,-4.940395604678536,-2.3811862254237086,11.66702326269132
1751,17.6617488861084,-9.72210875950871,-4.926908327426247,-1.766380333486281,11.041463846841378
1752,17.6730318069458,-8.923058021755555,-4.605126331956404,-1.1785323798637881,10.110246859660837
1753,17.681847095489502,-7.962024928423666,-4.007517747588428,-0.6452502502083968,8.937023405109226
1754,17.69187092781067,-6.918041465135176,-3.189273617752128,-0.19207729362752127,7.6202137508698975
1755,17.702209949493408,-5.8776499103791755,-2.222482102173556,0.15778089280903576,6.285784753998321
1756,17.712085962295532,-4.924365198351321,-1.1896720676627934,0.38421032358823615,5.080581640724071
1757,17.723421096801758,-4.129202241128336,-0.17728798496846115,0.47176708536003453,4.159844511587249
1758,17.732300996780396,-3.5432231267264758,0.7310770694720646,0.41253985101004104,3.641303741237277
1759,17.74238395690918,-3.1925735066311076,1.4622114415771446,0.21029446641955035,3.5177850499609327
1760,17.753615856170654,-3.076159737422995,1.9612731303732758,-0.11556809560453042,3.650028356984115
1761,17.762520790100098,-3.1661308670656116,2.198500149322543,-0.5287468503586211,3.8906761373469583
1762,17.776726961135864,-3.41159425037725,2.172629163740354,-0.9792430131686594,4.161515311900445
1763,17.782639026641846,-3.745800282898765,1.9103243693921084,-1.4108441529158358,4.435182090903893
1764,17.792705059051514,-4.095912241149721,1.4621564273368268,-1.770873316456046,4.695784365592032
1765,17.802742958068848,-4.393282685538007,0.8955983505287661,-2.0195754933176646,4.917490654157583
1766,17.813016891479492,-4.582075847220819,0.28524949790245746,-2.137107295067629,5.063991897344354
1767,17.82426881790161,-4.624953602932966,-0.2983967104029035,-2.126401835189751,5.099100037336024
1768,17.83307981491089,-4.505452950538924,-0.7987332528114983,-2.010097622258693,4.997756851796292
1769,17.843138933181763,-4.227323812176361,-1.1786297764288416,-1.821788088991547,4.7516677708010535
1770,17.85867691040039,-3.8115580103044744,-1.4212623685535517,-1.5958074486670204,4.369732554676979
1771,17.86323308944702,-3.291974450689546,-1.527647475845719,-1.360594669749029,3.8758251314784578
1772,17.874566078186035,-2.710034974437045,-1.5126552455405304,-1.1367913921552986,3.3052549256920654
1773,17.883441925048828,-2.1094298582615743,-1.4004826126133536,-0.9377883860159965,2.700091282179967
1774,17.893588066101074,-1.53104818650816,-1.2200628507650377,-0.7707683130698663,2.1039832940542573
1775,17.903697967529297,-1.0089614338187358,-1.0009272780422405,-0.6379433006320416,1.5578286958725311
1776,17.913733959197998,-0.567804115598569,-0.7699805537374835,-0.5380781537789656,1.097633666757145
1777,17.92505693435669,-0.22159345965870283,-0.5493240969955232,-0.4679099958773441,0.7548512364336408
1778,17.933985948562622,0.026149483168277005,-0.35502944589465857,-0.4229799637812736,0.5528487611296997
1779,17.943996906280518,0.18112820367454244,-0.19677260968676794,-0.3979136135076993,0.4794393912728306
1780,17.958513975143433,0.2560639508100884,-0.07827408353017948,-0.38660860762522015,0.4702784223700598
1781,17.96410298347473,0.26794645156716684,0.0016116823321697588,-0.38268185837423113,0.46716517759367615
1782,17.975307941436768,0.23525797345343644,0.047450618646821874,-0.380196304753063,0.4496077239452942
1783,17.984237909317017,0.17563734403491907,0.06574782377847026,-0.37445529404243905,0.4187935293049008
1784,17.994451999664307,0.10426996999194496,0.06367429092493797,-0.3625618366004615,0.3825934230041265
1785,18.004547119140625,0.033072293990635514,0.048145873606167566,-0.34351165632159775,0.34844233354159415
1786,18.014620780944824,-0.029450022708466403,0.025297178523204896,-0.31782973963005895,0.32019212118988055
1787,18.02587890625,-0.0779085220921892,0.00027734138745778093,-0.28700053761218347,0.2973871606551242
1788,18.035245895385746,-0.1095499509905688,-0.022784049724228022,-0.25296933204308053,0.27661125725138963
1789,18.044857025146484,-0.12374555298169516,-0.040772945320723786,-0.2178287685011141,0.2538203446132406
1790,18.058954000473022,-0.12151042415192669,-0.05159519902455861,-0.18365340405588024,0.22617564095471765
1791,18.064971923828125,-0.10506412687161763,-0.05416983331528987,-0.15240287148124013,0.1928716589663423
1792,18.07625699043274,-0.07744143305381607,-0.048378223884917575,-0.1258305054163188,0.15547007491158585
1793,18.085588932037357,-0.042162018623147154,-0.03494852448984671,-0.10536263327790325,0.11874476691479902
1794,18.09522294998169,-0.0029493081140330507,-0.015270244288812032,-0.09195094114538965,0.09325692658732866
1795,18.105280876159668,0.03653882242783519,0.00884883426566904,-0.08593905482457001,0.0938024976022206
1796,18.11538791656494,0.07302135344566882,0.035461702127165276,-0.08699502277398909,0.11898648815827774
1797,18.12660312652588,0.10397803112158398,0.06277875938824287,-0.09413570632206228,0.15366891289718143
1798,18.13563203811645,0.12805953478664434,0.08945652493870258,-0.1058437022876349,0.18869182180962157
1799,18.145526885986328,0.14540311841240486,0.11482775826866268,-0.12026909101513776,0.22088941841262055
1800,18.15832591056824,0.1577362795919243,0.13901579259146044,-0.13549322362771019,0.2501290429725471
1801,18.16569185256958,0.16821871396174906,0.16290808508467447,-0.14980535317228755,0.27798961087057567
1802,18.17716407775879,0.18103598945566907,0.18800302402858768,-0.16193156028108313,0.3071497952744766
1803,18.185733795166016,0.20079507962745274,0.21616028360796535,-0.17116948214282032,0.34109078531838466
1804,18.196072101593018,0.23180281156170057,0.24929210900304546,-0.17740100467206574,0.3838622350762756
1805,18.20609712600708,0.27733540883717056,0.2890500205286117,-0.18097032851121383,0.4395623996248178
1806,18.216176986694336,0.33900935848022606,0.33656771576410666,-0.1824519423540186,0.5113647266879062
1807,18.22743511199951,0.4163406511053403,0.3922920048326578,-0.18237563594151449,0.6004110487020675
1808,18.236258029937744,0.5065554826611396,0.45590157194950276,-0.18094900862421995,0.7051150573077956
1809,18.24748706817627,0.6046855948453349,0.5263115363428229,-0.1777509038395913,0.8211235508233768
1810,18.25859880447388,0.7039253198345411,0.6017573557068043,-0.17140052755041296,0.9418072583580817
1811,18.2666540145874,0.7961786522769126,0.6799282351002427,-0.15933082278917912,1.0590510669078659
1812,18.277830123901367,0.8727309964991617,0.7581298843313153,-0.13785263702174494,1.1642266374295351
1813,18.286728858947757,0.9250283943498421,0.833519871619221,-0.10261767881177142,1.249385166688914
1814,18.296876907348636,0.9455857862156937,0.9035138662569698,-0.049432841804807344,1.3087831720574146
1815,18.30702209472656,0.9290314036916076,0.9664349667158504,0.02475791321407288,1.3407866527538903
1816,18.317069053649902,0.8732137339493933,1.0223666278261407,0.12096224787958261,1.3499509666141647
1817,18.328292846679688,0.780191266740905,1.0740427887119535,0.23752476149456853,1.348586051020097
1818,18.337294101715088,0.656863005339669,1.127539063422531,0.3699969348574018,1.3563594947990347
1819,18.348455905914307,0.5150077457822183,1.1925256596524019,0.5115988298002623,1.3960959099567893
1820,18.358777046203613,0.3705623924202384,1.2818810958222597,0.6542190604529942,1.4861151400758579
1821,18.367352962493896,0.2420883784668237,1.4105529489152082,0.789703371538228,1.6345940840774296
1822,18.378674030303955,0.1485731283005702,1.593716680466632,0.911063980055434,1.841750365224627
1823,18.387758016586304,0.10692696508184212,1.8444997111978936,1.0132620774256584,2.1072049254924607
1824,18.397675037384037,0.12963483125963446,2.1717003875383685,1.0933507704892627,2.434851878459854
1825,18.407823085784912,0.22297040268138646,2.577935731593894,1.1499679939189034,2.83158874551696
1826,18.41789484024048,0.3860631046312078,3.058503553051199,1.1823813511694934,3.3017441397506397
1827,18.42911696434021,0.6109802069030378,3.601078154311248,1.1894375328119615,3.84133080209799
1828,18.437983989715576,0.8838122003550983,4.186285404637574,1.16879985349971,4.435335679756273
1829,18.44917106628418,1.1865377651982438,4.789148841934096,1.1167632706607624,5.058752682345447
1830,18.45921802520752,1.4993004996897372,5.381228608420323,1.0287623970888669,5.6801298747577285
1831,18.468589782714844,1.8027170139719866,5.933058404359688,0.9004930616823413,6.265928376238053
1832,18.47957181930542,2.0799019094330493,6.41643871635176,0.7294152638189993,6.78444724208636
1833,18.488321781158447,2.3179891194112145,6.806321997224451,0.5163372550439004,7.208723662934825
1834,18.498544931411743,2.509062729663878,7.082259111253394,0.2667578831359073,7.518307633273277
1835,18.50858211517334,2.6505510063952684,7.229494523469075,-0.008398477820550521,7.700070274796329
1836,18.519062042236328,2.74519464697136,7.2397736012872915,-0.2930049352573128,7.748307385470824
1837,18.530107021331787,2.8006688937106774,7.111852262978435,-0.5670189721776298,7.664443840060377
1838,18.538928031921387,2.8289059584550253,6.851691812570056,-0.8085640914977555,7.4566859600147755
1839,18.550063133239743,2.8451661821578513,6.472394694651719,-0.996387205254572,7.140003581949061
1840,18.5590500831604,2.8669170012813607,5.993946815167087,-1.1123788248978739,6.736764666022478
1841,18.56900978088379,2.912568914704789,5.44266153662868,-1.1438761444684282,6.278062991009716
1842,18.58036184310913,3.0000645664822065,4.850031368452451,-1.0853941245126104,5.8052796731562655
1843,18.58932113647461,3.145276566241241,4.250728434002445,-0.9395035230810352,5.37067256194835
1844,18.599300861358643,3.360257360934837,3.6796983892902446,-0.7167449443841737,5.03440493833802
1845,18.609363079071045,3.6515541254702795,3.1685195656067835,-0.43452995975036884,4.85408900359199
1846,18.61938691139221,4.018851544500422,2.741526474094482,-0.11509806253459628,4.86624934717628
1847,18.63073992729187,4.454073460819595,2.412597389186521,0.21710075248701896,5.070160677278136
1848,18.639795780181885,4.940924084873236,2.183606140816339,0.5380341439465475,5.428659809818953
1849,18.649652004241943,5.454926920330894,2.04507516761804,0.8262641133164309,5.883984409591279
1850,18.659750938415527,5.964402041990019,1.978797871412861,1.064522941969266,6.3736129336806835
1851,18.669867038726807,6.433067253261659,1.9616071897370133,1.2408334465634288,6.839000270063303
1852,18.68107390403748,6.824420146333627,1.969294982733284,1.3492087770221723,7.22988225261632
1853,18.690119981765747,7.106966472328639,1.9799166476227197,1.3896073799389415,7.507333151040903
1854,18.700058937072757,7.258734737780718,1.9761580896585709,1.3669329472580145,7.646105967817017
1855,18.710202932357788,7.2698827742508785,1.9467567945834856,1.2894192624963583,7.635683309508276
1856,18.72054481506348,7.143070444532449,1.8869973001027172,1.166965435616242,7.4797073815805755
1857,18.73168182373047,6.891961654038545,1.7982738803800895,1.009755472435799,7.193923164985086
1858,18.74062490463257,6.538502800250006,1.6868649949275085,0.8272601758078908,6.80307958048902
1859,18.75052690505981,6.109614595870561,1.5623055984843528,0.6276240592514185,6.337357592315695
1860,18.7607159614563,5.633795368948324,1.4358377465576615,0.4173571699592784,5.828847853644817
1861,18.77087092399597,5.137993244164284,1.319276360392638,0.20119917693584166,5.308478671047698
1862,18.782071113586422,4.645017018466717,1.2243557311631588,-0.01792219499015436,4.803701829147056
1863,18.79085111618042,4.171687480861405,1.1623959845652803,-0.23882402088507568,4.33718546708127
1864,18.80104112625122,3.7278308610573547,1.1440414913166466,-0.4618626866172002,3.9266870264632616
1865,18.810992002487183,3.3160958554845674,1.1788675054560263,-0.6886221726357831,3.586142888233494
1866,18.82117509841919,2.9324876155106137,1.2747652184700575,-0.9215845313192186,3.3277361712898763
1867,18.832581043243408,2.567471517247715,1.4371208189902493,-1.163868381237783,3.1641453584022567
1868,18.841364860534668,2.2074689656993884,1.6678511950256432,-1.4190693370185004,3.109405831753153
1869,18.8513708114624,1.8365158473701477,1.9643594939240028,-1.6911617623514197,3.1767163526904025
1870,18.861363887786865,1.4378096922278112,2.3184708476703526,-1.9843464096104664,3.373460308925461
1871,18.87157392501831,0.9949021529304172,2.7154327098629727,-2.302698897912573,3.696731977050422
1872,18.88259506225586,0.4924317713897647,3.1331279142095285,-2.649533330736648,4.132675458701959
1873,18.891604900360107,-0.08351263654839816,3.541734496155515,-3.026519126806705,4.659471603803166
1874,18.90210795402527,-0.7451523279288113,3.904120218491409,-3.4326935051483423,5.251741746557873
1875,18.91173791885376,-1.5026086579833369,4.177240260156949,-3.863540996055822,5.885075870226873
1876,18.921955108642575,-2.363089495357882,4.314722219991564,-4.310300048979199,6.540619719184856
1877,18.933351039886475,-3.329564064404714,4.270683387950855,-4.759663442800442,7.209655300208574
1878,18.94209289550781,-4.398960270148728,4.004617520357278,-5.194011419866519,7.897187320331414
1879,18.95915699005127,-5.560061181543922,3.486942806882327,-5.592189172490211,8.622391212528967
1880,18.96226000785828,-6.791420688850323,2.7045832656515727,-5.930755635894441,9.413396200441177
1881,18.972306966781616,-8.059747266506454,1.6657651832829485,-6.185723444079997,10.295507475226115
1882,18.983614921569824,-9.319299391846942,0.4030885021793921,-6.334852863868693,11.275734224534267
1883,18.992438793182373,-10.512860009152355,-1.0259377789507302,-6.360288081323479,12.329883956296536
1884,19.00242495536804,-11.574717359973208,-2.5412942149191404,-6.250939938184672,13.398003894641874
1885,19.012650966644287,-12.435719124735268,-4.045771846940728,-6.003968758478555,14.389684528841876
1886,19.02284812927246,-13.030004654131428,-5.432953256640255,-5.625105422794906,15.196704030581147
1887,19.03416109085083,-13.302625346416761,-6.597297470260904,-5.128018269271434,15.709256710240055
1888,19.044793128967285,-13.216964136816538,-7.445328166633348,-4.533082456096795,15.832557881041552
1889,19.058789014816284,-12.760686861408104,-7.906496332541719,-3.865765123304283,15.501353277051807
1890,19.063061952590942,-11.949063643563282,-7.942008200494216,-3.154784928636462,14.690414703492715
1891,19.073133945465088,-10.824976682610222,-7.549906652256869,-2.4303510200853293,13.41968020176626
1892,19.084491968154907,-9.455649669032065,-6.76528831359599,-1.722876089117927,11.753584076697582
1893,19.09327983856201,-7.926836131399256,-5.655801755048701,-1.0623973299607354,9.795484298041439
1894,19.103452920913696,-6.335564426241012,-4.313802992100828,-0.47847465189870975,7.679662157036484
1895,19.11345100402832,-4.782318547541483,-2.8468848526479658,0.0003416946181094994,5.565547966835874
1896,19.12360501289368,-3.3629499522963875,-1.3680122154323988,0.3487276435817817,3.6472593508853515
1897,19.13540291786194,-2.160361048599279,0.014080039278611487,0.5489554334211489,2.229060379553157
1898,19.14502191543579,-1.2365029760309363,1.2038284822230585,0.5960541872661692,1.8257664742519424
1899,19.158609867095947,-0.6259312281464108,2.1266813284703194,0.5011601146508255,2.272823098208478
1900,19.163790941238403,-0.33222260660460756,2.735212404509334,0.29128283489902607,2.770668592240455
1901,19.173909902572632,-0.3280579600082179,3.0128676280220184,0.005584846003838947,3.03068054397237
1902,19.185755968093872,-0.559245170451529,2.9749244160578088,-0.3107891930683912,3.0429460009106895
1903,19.19415283203125,-0.9523382389374261,2.666287562848257,-0.6141943240186305,2.8971144535206816
1904,19.20421290397644,-1.4246904938024054,2.155541072382975,-0.8698325408460702,2.7262995006006983
1905,19.21427893638611,-1.8952160187858604,1.5250804912181906,-1.0570598783358371,2.6523743794842045
1906,19.22440385818481,-2.294149796899759,0.8587474745016057,-1.1706746959850032,2.7149677271374095
1907,19.23621296882629,-2.570472078900125,0.23005011594158967,-1.2174654902554434,2.853501705661449
1908,19.24567198753357,-2.6961125299610016,-0.30602660023095285,-1.2101434174441197,2.97104731450796
1909,19.25871086120605,-2.6665029227763855,-0.7164317525057119,-1.1623940172151932,2.995775716643535
1910,19.264554977416992,-2.4975699992525895,-0.9892783270805122,-1.086800349370639,2.897872065669901
1911,19.27477192878723,-2.2199427526273245,-1.1301945378655904,-0.9945120297630069,2.6822639123895198
1912,19.28640198707581,-1.8718188967879246,-1.1571501685890249,-0.8950590190727242,2.3756753024480006
1913,19.2948899269104,-1.4921740254828086,-1.0950236911355251,-0.7958803801058817,2.014717296771714
1914,19.304944038391117,-1.115606109280351,-0.9709163193006912,-0.7019941615622777,1.6370862203975605
1915,19.314969062805176,-0.7693103752324792,-0.810723735504441,-0.6162061948264287,1.2762529150967998
1916,19.325355052948,-0.471936678109069,-0.6369603381820205,-0.5397134523630334,0.9590272734511783
1917,19.336758136749268,-0.2337659688166588,-0.46757117810261445,-0.4726713664278039,0.7047606369610786
1918,19.346561908721924,-0.05771781502083918,-0.315485539163737,-0.41453778453000295,0.5241221674335639
1919,19.35969400405884,0.059146586227651454,-0.1887512240797721,-0.3642841130268454,0.4145217222990284
1920,19.365367889404297,0.12389797779295543,-0.09109912166785367,-0.32058093004687566,0.3555585627988136
1921,19.37545394897461,0.14603273656604726,-0.022767398706440962,-0.2820027795321872,0.31838574443072354
1922,19.38683605194092,0.13597894246880046,0.018572421286679908,-0.24727333816881816,0.28280613748031347
1923,19.39575290679932,0.10394540691203348,0.03691263380831427,-0.21553070946038136,0.2421170726596335
1924,19.405772924423218,0.05917891141903515,0.03712646188791548,-0.1865281182741431,0.19918146659754657
1925,19.41588306427002,0.00961036022832053,0.02436647447573933,-0.16065852817430387,0.162779749284819
1926,19.425915956497192,-0.03822192917158268,0.00365253101611795,-0.1387403032475077,0.14395530069306783
1927,19.43719482421875,-0.07913526993281092,-0.020397379690387133,-0.12161837931809741,0.14652465401267217
1928,19.446128845214844,-0.10928850623714058,-0.04376632219454833,-0.10974841952493578,0.16094776836664693
1929,19.460472106933597,-0.12624084969373986,-0.0632209200358916,-0.10293685908555983,0.17472731274755648
1930,19.466161012649536,-0.12904568215114187,-0.07647968757563758,-0.10030460928028413,0.18045205827695934
1931,19.476310968399048,-0.11829287527490522,-0.08232665545016088,-0.10043591135051914,0.175665178186296
1932,19.48777484893799,-0.09600980283315638,-0.08062146159507075,-0.10163141391794923,0.16138973512819382
1933,19.49653387069702,-0.06536147800423296,-0.07217655019794808,-0.10217764836245395,0.1411447803861554
1934,19.506706953048703,-0.030140747011373682,-0.05849888953737645,-0.10056218035204749,0.12018043445031944
1935,19.516677856445312,0.0059017388403757014,-0.041420626502313776,-0.09561560199239892,0.10436877964962998
1936,19.526858806610107,0.03978449010831881,-0.022672310805809493,-0.08660189823084127,0.09796289148263812
1937,19.538329124450684,0.06993768387524128,-0.0034785276312994753,-0.0732690519551609,0.10134956218318343
1938,19.54709386825561,0.09659704881152135,0.015729892425837104,-0.05586555031461352,0.11269152171649144
1939,19.561312913894653,0.12179865304051941,0.03540017536418048,-0.03515785730333472,0.13162127194515788
1940,19.56709599494934,0.148919990692819,0.056697037484780805,-0.012475671021582552,0.15983541552152541
1941,19.577214002609253,0.18187011145392953,0.08113606754492157,0.010256970698569515,0.19941164545941178
1942,19.588626861572266,0.22414420275564406,0.11011872671193772,0.030583053901311566,0.251599047668214
1943,19.597352027893063,0.2779625610157179,0.14449494409544208,0.04571062382119446,0.31659348591795816
1944,19.60739278793335,0.3436487568082233,0.18425601578356895,0.052831063495719977,0.39349189150268526
1945,19.61750292778015,0.4193331030850826,0.22842224732055189,0.049475695132757645,0.4800675148589055
1946,19.627625942230225,0.5010266756428279,0.27515278123820425,0.033801583088014495,0.5726074831401337
1947,19.63900399208069,0.5830774897515546,0.3220741208749305,0.004762346773606414,0.6661334538507473
1948,19.64786100387573,0.6589473893461573,0.36678823535980926,-0.03779262224734979,0.7550983736049296
1949,19.66230797767639,0.7221457298084316,0.4074736248103362,-0.093051265345081,0.8343786598295451
1950,19.667935848236084,0.7671070325277298,0.4434559765106974,-0.15922330566235002,0.9002546659265932
1951,19.678043842315677,0.7898494537780272,0.4756303477825109,-0.2335844761896536,0.9511299043148391
1952,19.6894588470459,0.7883448518749211,0.5066639405613578,-0.31251724194557057,0.9878577734958209
1953,19.69818878173828,0.7626031494857451,0.5409641275472664,-0.3914809989810619,1.013638556617576
1954,19.70828485488892,0.7145216523013456,0.5844326752965769,-0.46494529804328705,1.0335748031634284
1955,19.718842029571533,0.6475951847316437,0.6440513882947727,-0.5264053264179466,1.0541746922276312
1956,19.72850513458252,0.5666095467086549,0.7273669531240645,-0.5685899694066212,1.0832375622310162
1957,19.73986577987671,0.4774156438116858,0.8419413001381904,-0.5839275225038776,1.1303814406526804
1958,19.74878978729248,0.38680960751823706,0.9947993907084688,-0.5652900503961069,1.2078080730394156
1959,19.763896942138672,0.30246170093598657,1.1918731441199677,-0.5069579091830488,1.3300567634092748
1960,19.769147872924805,0.2327714597530287,1.4374297161835976,-0.4056508469275321,1.511601584762413
1961,19.778814792633057,0.18650206028580504,1.7334808268886208,-0.26142906395366733,1.7629758793474735
1962,19.790266036987305,0.17208641780194478,2.079205979912502,-0.07829137391105565,2.0877837007996525
1963,19.79900312423706,0.19659968138458173,2.470479007837932,0.13563172871507062,2.4819979711358853
1964,19.809060096740723,0.26453280204482904,2.8996159019913286,0.3682993444154086,2.9348584956579242
1965,19.819132804870605,0.3766374726604349,3.3554385712911876,0.6043543202442029,3.430170248824177
1966,19.82929801940918,0.5291763299502965,3.8237170978590047,0.8260939119161957,3.947565222253327
1967,19.84206485748291,0.7138467045319254,4.288041850622308,1.0148868147086967,4.463952875751383
1968,19.84947896003723,0.9184746008812618,4.731111881907231,1.15303679666634,4.955452460275888
1969,19.863725900650024,1.1283966963661947,5.136236556953727,1.225864022367295,5.3997173698900705
1970,19.86943006515503,1.3283406252692553,5.488682663017713,1.2235967524231062,5.778175767886634
1971,19.8796169757843,1.5045756702927857,5.776573553298542,1.1427624222090533,6.077701532480699
1972,19.890978813171387,1.647091031826405,5.991264891760646,0.9870502936065363,6.291457077058972
1973,19.89977788925171,1.7515343089531625,6.127257949671763,0.7677424274527221,6.418768639869087
1974,19.9098219871521,1.8206096481408058,6.18178383355889,0.5036220292660297,6.463954362780996
1975,19.91997003555298,1.8646202878305846,6.154268466074188,0.22002536354671512,6.4343018526417
1976,19.930030822753903,1.9008839842933127,6.045906499394946,-0.05324637294672079,6.337916100533429
1977,19.94275283813477,1.951895002036487,5.859531971263881,-0.28505706919655643,6.182658534476697
1978,19.95030879974365,2.0423652090827216,5.599913333336127,-0.4465878795110349,5.977434710833185
1979,19.964096069335938,2.195583376151849,5.2744457688882544,-0.5148346248982637,5.73632453942171
1980,19.97029685974121,2.4297466641332424,4.893917483026743,-0.4754139097362982,5.484534216149279
1981,19.98041200637817,2.754916022771359,4.472762532470983,-0.3243683429237885,5.2631152168929125
1982,19.991667985916138,3.171047825356666,4.028264736551859,-0.0687379997583682,5.1271030817662755
1983,20.000576972961422,3.6673128938860984,3.578649831376591,0.2744053843351645,5.131395209124616
1984,20.010581016540527,4.222703081604945,3.1406719498320124,0.6805933135073924,5.306434666539153
1985,20.020673990249637,4.8077190838732475,2.727672360942025,1.1216976762508486,5.640262846268125
1986,20.030821800231934,5.386870522449173,2.348778792708012,1.5695715013081406,6.082654892431875
1987,20.043370008468628,5.92192419489144,2.0091863004277166,1.99871212339728,6.565124973074184
1988,20.05101990699768,6.375950476029941,1.710991619368249,2.3879745677271615,7.020160919127606
1989,20.064043045043945,6.717813137129616,1.454081050786507,2.7216800908642584,7.392625214675402
1990,20.071248054504395,6.926133532294449,1.236825730593864,2.9901006713759446,7.64472142200064
1991,20.08119797706604,6.991626170552516,1.0565665750981947,3.1891583667392536,7.756925971318313
1992,20.09243488311768,6.91718954884539,0.9099822857729251,3.3194853487990343,7.726225598309168
1993,20.10130500793457,6.715858612691343,0.7934141738555496,3.385202208715681,7.5625297983432045
1994,20.11150598526001,6.407340535016279,0.7031387732363761,3.392677616997153,7.284138815190477
1995,20.121454000473022,6.014178714746724,0.6355326146135827,3.3494046881814086,6.913230726828213
1996,20.131645917892456,5.558512615740628,0.5871123151620139,3.263113838498117,6.472223365502811
1997,20.144041061401367,5.059994462337559,0.5545208475535786,3.1412155514912743,5.981494167027912
1998,20.15870499610901,4.534934230134885,0.5345768995487074,2.990558447733469,5.458465055534405
1999,20.164546012878414,3.996390520621276,0.5244596344522099,2.8173904205589215,4.917711244404099
2000,20.171998977661133,3.454781384909267,0.5220124924028305,2.62740186343596,4.371641798195154
2001,20.1819109916687,2.9186199685762224,0.526091076229954,2.425775030755191,3.831383410896906
2002,20.19332790374756,2.3950979601350797,0.5368707146659455,2.2171981872067574,3.3076717195426264
2003,20.20236301422119,1.8903632836708548,0.5560415930829291,2.005819913508789,2.811755523319455
2004,20.21221208572388,1.4094414277799734,0.5868284923921161,1.7951423114364646,2.3565713942367856
2005,20.222350120544437,0.9558545382513868,0.6337797459220873,1.587881980332098,1.9587505834332821
2006,20.232513904571533,0.5311040886023746,0.7022943024145128,1.3858430967106399,1.6419043604408212
2007,20.24380588531494,0.13425729984741788,0.7979027289538081,1.1898415183392534,1.4388872875239789
2008,20.25923800468445,-0.23813856294576788,0.9253686996717765,0.9997047136094457,1.3829051738666154
2009,20.265448093414307,-0.5917035101344732,1.0877033143693933,0.8143544412313254,1.4820204789235552
2010,20.27276992797852,-0.933486326747858,1.2851731642551194,0.6319551090345906,1.7095128090136225
2011,20.282814979553223,-1.2710341748109004,1.5143599300000345,0.45009404910695555,2.027658384484041
2012,20.294075965881348,-1.611524859029992,1.7673386187626918,0.2659716342184072,2.406499340297118
2013,20.302917957305908,-1.9611733869827825,2.0310932187904935,0.07660980619872974,2.824430877120567
2014,20.313068866729736,-2.325006128695177,2.2873467452120857,-0.12089937201216872,3.2637746995550097
2015,20.323218822479248,-2.7069622732561447,2.5130030669243504,-0.329095886657993,3.708252049931137
2016,20.33327007293701,-3.1101790843048565,2.68135487833296,-0.5498041158705474,4.143086106495441
2017,20.34456992149353,-3.537263590181667,2.7641096916082493,-0.7837324769540374,4.557057459490725
2018,20.359795093536377,-3.990361257329117,2.7341521450435877,-1.030024598619148,4.945656841108186
2019,20.36588478088379,-4.470893017132017,2.568812456487403,-1.2857818133876415,5.314218350696844
2020,20.37359595298767,-4.978888237884593,2.2532337968390763,-1.5456055065747147,5.679373822043895
2021,20.3836829662323,-5.51187604590118,1.7832804565495444,-1.8012991584788665,6.066757403294403
2022,20.394938945770264,-6.06343590435044,1.1675029537360735,-2.0419758063213895,6.503689976217377
2023,20.403892993927,-6.621781992188524,0.42799729551097393,-2.254760308128497,7.008218210369069
2024,20.413938999176025,-7.168893430226325,-0.3998083973639769,-2.42607536199974,7.578833777742265
2025,20.42400312423706,-7.680557760879536,-1.268509073776178,-2.543337958092091,8.189545210665328
2026,20.434085845947266,-8.12750811444853,-2.121391405545061,-2.596731227160084,8.792024949467299
2027,20.445387840271,-8.477748410359359,-2.8965074107194515,-2.5805427562275143,9.32315258946359
2028,20.459692001342773,-8.700036277399553,-3.5320296526188257,-2.493663498704822,9.715154262276009
2029,20.465706825256348,-8.768234499594737,-3.972447026320618,-2.3393285622819953,9.9062974788321
2030,20.474479913711548,-8.665902184930149,-4.17485576482101,-2.124682984657194,9.850967420569827
2031,20.484483003616333,-8.390198475678144,-4.11448411464509,-1.860782794567475,9.528217178438839
2032,20.495779037475582,-7.954056622371367,-3.788780291551474,-1.5631002740760627,8.94791346160407
2033,20.50468397140503,-7.385835637788528,-3.2198336170728816,-1.2519856265904177,8.153855811776948
2034,20.51474690437317,-6.726420508972878,-2.455110567641318,-0.9523287040673178,7.22351927549623
2035,20.5248818397522,-6.0247030468349445,-1.566008372498802,-0.6917401025355195,6.263220688650086
2036,20.535372972488403,-5.332678057637058,-0.6429450729408887,-0.4967324370750894,5.394216972579549
2037,20.54632806777954,-4.7006529810796405,0.21438143657609018,-0.3870214795915004,4.721428118117074
2038,20.55961513519287,-4.1721662067087895,0.9115128068842885,-0.36948201246853646,4.286530463096545
2039,20.5657811164856,-3.7783307694718338,1.3756321403117375,-0.4345322717015585,4.044374547955022
2040,20.575200080871586,-3.5324428223541826,1.5686501420238783,-0.5571953531230255,3.905032934920653
2041,20.585620880126957,-3.426620520342428,1.4926530259379063,-0.7028612657766932,3.8031244004374374
2042,20.59648895263672,-3.4320469379658727,1.1868739310731415,-0.835912628760574,3.726441444003025
2043,20.605580806732178,-3.5032548985859306,0.7180479066858647,-0.9288528880906894,3.694746996544782
2044,20.615597009658813,-3.5856352808414833,0.16684872784636423,-0.9690450326633553,3.7180192496178197
2045,20.625651836395264,-3.624639971892233,-0.3864427539838958,-0.9597823982564389,3.769421066947611
2046,20.63716506958008,-3.5750047954854964,-0.8738460056162793,-0.9148664768926982,3.792261436111424
2047,20.64702606201172,-3.408331606500121,-1.2472330619253416,-0.8504710694625571,3.7276823484063315
2048,20.658966064453125,-3.1174454636580125,-1.4813101188226827,-0.7795032589494234,3.5384136583674275
2049,20.665846824646,-2.7164564473234685,-1.5727094841262133,-0.7102519148376785,3.218230652733947
2050,20.676065921783447,-2.2365657344749437,-1.5360772132496678,-0.6474887542986117,2.789444600029812
2051,20.685851097106934,-1.7189045750813683,-1.3982364112947847,-0.5937340297215069,2.293952505645118
2052,20.6973979473114,-1.2064567929305003,-1.1917769222527745,-0.5498519359826489,1.7827527526626654
2053,20.70621013641357,-0.7370700629734475,-0.9493932936649387,-0.5152941684121618,1.307726264853323
2054,20.71627712249756,-0.3388057560503095,-0.6997915056914161,-0.4883835136095387,0.9181589993766219
2055,20.72634196281433,-0.02791583450600333,-0.4653284345143515,-0.4666290847182874,0.6595851336171626
2056,20.737585067749023,0.19091041630494385,-0.2611622045217463,-0.44705996555299915,0.5518288656138189
2057,20.74784803390503,0.32266026240982126,-0.09559199408263507,-0.4267694176398742,0.5434883716361801
2058,20.758867979049683,0.3792196313459361,0.028803637959988918,-0.40368120014980147,0.5546130991170889
2059,20.7667088508606,0.3764514304043485,0.11369520194772961,-0.37719871046313824,0.5449047123804944
2060,20.7768669128418,0.33167797728368853,0.1635841910618216,-0.3484098446930994,0.5080939756181125
2061,20.78702402114868,0.26179172535251555,0.18461454771175675,-0.3198017373549448,0.45264841754401897
2062,20.798285961151123,0.18196100011743777,0.18363365033785053,-0.29459278924198407,0.3919388148340429
2063,20.807159900665283,0.10478345710994635,0.16747624486872642,-0.2758363563970964,0.3392838943859074
2064,20.81721782684326,0.039734057762605184,0.14242310967855923,-0.26557461586930153,0.3039621919103098
2065,20.827297925949097,-0.007173596020565632,0.11377586762389089,-0.2643729067687644,0.2879052663061258
2066,20.83871698379517,-0.03348476296021639,0.08553566812782144,-0.27137412998871235,0.28649868812911733
2067,20.848679065704346,-0.040065744253978304,0.060241894881803135,-0.2847363552534221,0.2937841754835996
2068,20.859216928482056,-0.030466202215784634,0.039040149120340546,-0.30217354132137336,0.3062044607700731
2069,20.86746096611023,-0.00993130870908906,0.021990643114778854,-0.3213487791354692,0.3222534051474606
2070,20.877634048461918,0.015752370098325846,0.008544858464487291,-0.3400070303036281,0.34047897501282665
2071,20.88783597946167,0.041325562102015455,-0.001937531365316493,-0.35589559456525827,0.35829210198076905
2072,20.89903497695923,0.06283052835925314,-0.009762837186565338,-0.3666250869140317,0.3720980282648049
2073,20.907970905303955,0.0780029323968151,-0.014653025243655944,-0.3696271198133849,0.3780520814819457
2074,20.917937994003296,0.08631830214705001,-0.015685605295100585,-0.36228906942625316,0.37276032155362726
2075,20.92819881439209,0.08879598294802944,-0.011389743687798706,-0.3422566911886614,0.35377124743595434
2076,20.93946886062622,0.08766245897251598,4.781290126564443e-05,-0.30782976300406606,0.32006854264410467
2077,20.949635982513428,0.08594393042983656,0.020512657894181975,-0.25833570679971585,0.2730283240239391
2078,20.959330081939697,0.08702256954214677,0.051672197580014616,-0.19437038085176703,0.21914102437683092
2079,20.96875,0.09416762236168967,0.09469923296560662,-0.11785390499675717,0.17811521200760114
2080,20.97860813140869,0.11006324787121849,0.15003864185910024,-0.0319091222523897,0.1887954042496866
2081,20.988603115081787,0.13638945625529322,0.21725343358213228,0.05941114631890257,0.2633074675883055
2082,20.999910831451416,0.17352641290916415,0.29498622030778787,0.15151301459216165,0.3742786124525433
2083,21.00882601737976,0.22043506213592323,0.3810498436432193,0.23970694920999966,0.5012484627995936
2084,21.01917695999145,0.2747399868812112,0.4726338592853054,0.31963517016444587,0.6332704535508223
2085,21.028981924057007,0.3330057886184849,0.5665970813029927,0.3876211178111146,0.7630040883033505
2086,21.0427508354187,0.3911552310229447,0.6598049312591199,0.4409182449935005,0.8847337796414319
2087,21.050211906433105,0.4449457265382612,0.74946541152259,0.47787837107440334,0.9940034407254894
2088,21.059228897094727,0.49041685183541267,0.8334331911846682,0.49807908408022256,1.0877510499790888
2089,21.06915593147278,0.5242472194464797,0.9104818824936316,0.5024265050900815,1.1645792366616994
2090,21.079365015029907,0.5440020267420909,0.9805651652383893,0.49320920499777815,1.225031251957693
2091,21.089428901672363,0.5482853904574615,1.0450859900975666,0.47405507768225563,1.2718293174650566
2092,21.100692987442017,0.5368220950798384,1.10717231583767,0.44973872049934216,1.3100661874270483
2093,21.109560012817383,0.5105023529855849,1.1719291649648655,0.4258046224216341,1.3473456114058842
2094,21.11953401565552,0.4714390107073057,1.2466187310332184,0.4080231900669409,1.393842144940365
2095,21.12974500656128,0.42307997866290376,1.340710771019968,0.4017595436424422,1.4621603095359084
2096,21.142898082733154,0.37036401777767075,1.4657267762108805,0.41136428687300186,1.5667626063576106
2097,21.15089607238769,0.3198235438342145,1.6347797748195945,0.43968431897819665,1.7228216134310599
2098,21.159943103790283,0.27947821695766084,1.861708882039273,0.48775513054996283,1.944729570556165
2099,21.17010498046875,0.25837358380382724,2.1597443480652236,0.5546778615619083,2.2447539036416
2100,21.180113792419437,0.26570122947230956,2.5397409542494946,0.6376358258764744,2.632006972725643
2101,21.190218925476078,0.309566923818789,3.00817546584754,0.7320131451753432,3.1113975249651387
2102,21.20153379440308,0.3956248620232647,3.5652439372162728,0.8316244791307158,3.682265965081522
2103,21.21038007736206,0.5259128542234817,4.203455862187451,0.9290831701777917,4.3369137704943075
2104,21.22045087814331,0.6982260527609209,4.907088924384473,1.0163090290122836,5.0596368817359565
2105,21.23049783706665,0.9062375655103538,5.652703512827443,1.0851482398119159,5.826823339645776
2106,21.243545055389404,1.1403797532985753,6.410653968944927,1.128072659209798,6.608290112861218
2107,21.252169132232662,1.3893197431557551,7.147364277413957,1.1389379782834852,7.369681484375833
2108,21.260788917541504,1.6417581245213047,7.828083946150103,1.1138000128082242,8.075569235412217
2109,21.27088594436645,1.888270821142391,8.419722000877316,1.0517839443462453,8.692728842637381
2110,21.28097486495972,2.1229237481940744,8.893293640528201,0.9559223154823988,9.193000842518343
2111,21.2910270690918,2.344351364167954,9.225728977436786,0.8337563866126457,9.555375879368134
2112,21.302743911743164,2.556001464476653,9.401075676096045,0.6974675911152374,9.767283572966827
2113,21.31120491027832,2.7654381619786483,9.411230079630792,0.5634222448152616,9.825291062631576
2114,21.32131004333496,2.9829085690807893,9.256324518618142,0.4511260466240208,9.735543222409811
2115,21.33139181137085,3.2196180644082952,8.944847490185678,0.381547334572663,9.514295321875643
2116,21.341483116149902,3.4861611365506224,8.4934426813537,0.374710231235037,9.188704794954994
2117,21.360790014266968,3.7913128244327456,7.926159687985975,0.44667734925538854,8.797589498635404
2118,21.362826824188232,4.141056727851625,7.2728658873661605,0.6064777669708797,8.3911110301753
2119,21.37166786193848,4.537560355181291,6.5667110976098755,0.8537701692702504,8.02745738813489
2120,21.38185310363769,4.977987376753721,5.840898191286376,1.177944455645346,7.764277374274921
2121,21.391820907592773,5.45341110117529,5.125355624073301,1.5591092018082962,7.644591840955606
2122,21.40363883972168,5.948237521085681,4.444064570431794,1.970841514165979,7.682151768051625
2123,21.4120090007782,6.440335919670607,3.813619906690482,2.38374081418825,7.855179426348721
2124,21.422091007232662,6.901973968900767,3.2431480031188498,2.768644707892526,8.11299249081736
2125,21.43340301513672,7.301925423224963,2.7352890080577956,3.0992805361425138,8.390796189018817
2126,21.44268298149109,7.6091426750515625,2.287771791890324,3.354794269831585,8.62482443960193
2127,21.453596115112305,7.7975999873909405,1.8951266736558878,3.521934842829022,8.763452271205356
2128,21.462491035461422,7.850913227156429,1.5502883775303031,3.5959158932832516,8.773302893746026
2129,21.47245192527771,7.765120651224599,1.2461090403477528,3.5794992743000185,8.640758156737492
2130,21.48261404037476,7.548695373941137,0.9768380968740124,3.4808914739500034,8.369804058010116
2131,21.492631912231445,7.2198837927265025,0.7394275182949562,3.311361482856678,7.977379889752865
2132,21.50392484664917,6.802308850346499,0.5343768627772878,3.083141387983323,7.487504600684379
2133,21.51279592514038,6.3201635856284755,0.3658938217690497,2.8078093082632773,6.925470319731567
2134,21.522922039031982,5.794171092313374,0.24132529662543564,2.4951948928079215,6.313212660673332
2135,21.53413391113281,5.2389808273227505,0.1699801169206864,2.152799118001621,5.6666001616200425
2136,21.543120861053467,4.662125288707914,0.16154950096500745,1.7856954469470312,4.9950193871615
2137,21.554067134857178,4.064295328907577,0.22433846092488746,1.3968353381171852,4.303483847703283
2138,21.563273906707764,3.4405574832304606,0.36350039666249134,0.9876432395083296,3.597917106095333
2139,21.573256015777588,2.782168523949512,0.5794693330121526,0.5588013644201636,2.8962916580404663
2140,21.58333778381348,2.078722721443139,0.866815025146904,0.11115180122387101,2.2549525856167594
2141,21.59343099594116,1.3203974934238263,1.2137413641844317,-0.35339825280397136,1.8279792025231327
2142,21.60503387451172,0.5000300304994066,1.602337882534686,-0.8311852685704293,1.8730685176723982
2143,21.613779067993164,-0.3852694716590942,2.009508535993979,-1.3165860622535162,2.4330959663246663
2144,21.623790979385376,-1.3332031471877277,2.4083497243635086,-1.8024830143252613,3.290368375037076
2145,21.642273902893063,-2.3361456298146495,2.7696924190286523,-2.28132859215801,4.281732435022595
2146,21.64433479309082,-3.3816617206031307,3.0635598579430314,-2.746426464058493,5.325776311325259
2147,21.655059814453125,-4.453424361516862,3.2604248290410878,-3.192822700705043,6.376321463643197
2148,21.66406893730164,-5.532241063650015,3.3323616096613704,-3.617244523244998,7.402349831291838
2149,21.67409491539001,-6.596966859950055,3.2543887777219513,-4.016921437075357,8.38132900556215
2150,21.68416690826416,-7.625217786643642,3.0063752164836277,-4.387704692146068,9.296999015892933
2151,21.69429397583008,-8.59393095594165,2.575744651467237,-4.722288081495022,10.138545976109404
2152,21.705543041229248,-9.479870748929574,1.9608449443441573,-5.009267124622506,10.899799054936492
2153,21.714380979537964,-10.260137282533574,1.1743775879018679,-5.233381853996646,11.577472323661285
2154,21.72451686859131,-10.912655498542046,0.245958082804318,-5.3769187174488025,12.167900406496102
2155,21.74220395088196,-11.416605674337424,-0.7771368783295025,-5.4220499718315605,12.662600552335679
2156,21.7447190284729,-11.752854279836454,-1.8317153916414144,-5.353767233046972,13.04406334639224
2157,21.755846977233887,-11.904622244206873,-2.843162077459679,-5.162954311651008,13.283813405802029
2158,21.764773845672607,-11.85875517758075,-3.7324220220629885,-4.849019893748886,13.344438633473926
2159,21.774858951568604,-11.607886012927693,-4.424712318183364,-4.421372481235489,13.18596342349062
2160,21.78531503677368,-11.153449460693095,-4.858749956331045,-3.899130405267365,12.77537098982501
2161,21.795058965682983,-10.508999653887544,-4.994955378276746,-3.309107583762548,12.097059392980558
2162,21.80644989013672,-9.70276561050919,-4.821011593051246,-2.682966700738978,11.161725833852419
2163,21.815194129943848,-8.778107998013647,-4.3535932257876455,-2.0547038842538217,10.0115314538977
2164,21.825282096862797,-7.790853860023604,-3.6361923561593703,-1.4590611046998256,8.720559501917545
2165,21.842432975769043,-6.803550986787571,-2.7343010854623455,-0.9305819771516929,7.391257759811807
2166,21.84547710418701,-5.878063217224015,-1.7296143203478558,-0.5023487492202833,6.147808320749557
2167,21.85676097869873,-5.068618716299786,-0.7137778337587609,-0.2031225971589453,5.122658809316353
2168,21.865689992904663,-4.416765603727658,0.21936352815569338,-0.052125238001257936,4.422516907394854
2169,21.87572479248047,-3.9482662099499177,0.984097658534794,-0.05257591661551076,4.0694002620993075
2170,21.885991096496586,-3.67113105277054,1.5146924365368395,-0.18727419104495432,3.9757474777140436
2171,21.89591884613037,-3.574387684024546,1.775250032884632,-0.4194741547686501,4.012943877190674
2172,21.907165050506592,-3.6281297581669247,1.7640846369944758,-0.6993772478292327,4.094441193051564
2173,21.916121006011963,-3.7858798123907054,1.5118137261110247,-0.9737153895351937,4.191251406935983
2174,21.926126956939697,-3.9898648706510804,1.0748211048720409,-1.1957430482664915,4.301634983469838
2175,21.94281578063965,-4.178695633399732,0.525946558828252,-1.3340587733216138,4.417898798072861
2176,21.94624900817871,-4.295941419868618,-0.0565840882850917,-1.3783716088972806,4.512008724969837
2177,21.957479000091556,-4.297853490797597,-0.6006850980133411,-1.3394404904338364,4.541637154457633
2178,21.96649694442749,-4.158888741506493,-1.0500141400749752,-1.2421462630917968,4.465625666969832
2179,21.97651481628418,-3.8742387655199693,-1.3694420471328406,-1.1150736449249685,4.257756071725967
2180,21.986666917800903,-3.45907676632153,-1.5458731612047474,-0.982322969025813,3.9140636583114303
2181,21.99671196937561,-2.944735692207359,-1.5854518678793026,-0.8604154600846055,3.453323136672056
2182,22.008112907409668,-2.372585045702116,-1.5086059468483437,-0.7587501449391875,2.9121733266412453
2183,22.01687479019165,-1.786937791088216,-1.3441948101813666,-0.6809279657833156,2.337449304588991
2184,22.027014017105103,-1.2285914559117341,-1.1239032455687943,-0.6259047477513262,1.7788626209454836
2185,22.042675971984863,-0.7302354234124193,-0.8778076369021638,-0.5892358653254669,1.284908139127435
2186,22.04707384109497,-0.31408547742034254,-0.6314940928529016,-0.5645429112593822,0.9034064285180243
2187,22.058289051055908,0.008597650328128457,-0.40455578738627773,-0.5448724769005052,0.6786938343484399
