,time,New_AccelerationX,New_AccelerationY,New_AccelerationZ,new_NetAcceleration
991,10.00052809715271,-0.12207366994684961,0.0011393040527919436,-0.42424437014399663,0.44145958422815273
992,10.010473251342772,-0.23587678479368696,0.040632327945243824,-0.3154947383590808,0.39601234022580917
993,10.027936935424805,-0.3425840063847996,0.07172486764717542,-0.2085613874108764,0.407438474359522
994,10.03050708770752,-0.4413005758887379,0.0999617038203532,-0.10727682469132238,0.46502350222999744
995,10.042176246643066,-0.5329305645902351,0.1331603986578549,-0.015710754647160305,0.5495393582417631
996,10.05082893371582,-0.6205463676275429,0.18145507236978278,0.06216766929191771,0.6495140928183545
997,10.06093692779541,-0.7094909204983242,0.257136433309855,0.12315814336533659,0.7646335330614723
998,10.07092809677124,-0.8070800806167624,0.37416207452485867,0.16550993174894932,0.9048585812427528
999,10.081427097320557,-0.9218796047720189,0.5472278730632167,0.18925584543072493,1.088640494277888
1000,10.092698097229004,-1.0626677785090082,0.7903830075204508,0.19601688662104713,1.3388019741167667
1001,10.101331233978271,-1.237298461580392,1.1152974948006726,0.18833706924281243,1.6763850502163378
1002,10.111320972442629,-1.4516940023458464,1.5293846237614308,0.1687782579946354,2.115400412266316
1003,10.127764225006104,-1.7091207595506148,2.0339967619659354,0.13907013548674863,2.6603716095686867
1004,10.131422996520996,-2.0097938319069675,2.622873216823139,0.09957958098241035,3.305851063077114
1005,10.142853260040283,-2.35077884429691,3.2809874041178113,0.04925550720858571,4.036516521180611
1006,10.15168809890747,-2.72611998023526,3.9839518320595495,-0.013939863325195052,4.827400611778358
1007,10.161715984344482,-3.127119492661455,4.698173647178381,-0.09222951227998487,5.644485647369479
1008,10.172171115875244,-3.542723552218354,5.381965815930728,-0.18702845662577586,6.446039548038576
1009,10.18186616897583,-3.960030992449847,5.987775288073634,-0.2979369558537855,7.184988851159899
1010,10.193324089050291,-4.365018399103231,6.465589329043621,-0.4218919515024047,7.812504324164883
1011,10.202121257781982,-4.743632904790716,6.767427371654283,-0.5526587203748995,8.282847217426822
1012,10.21218204498291,-5.083404359060302,6.852580165931084,-0.6808134225020634,8.55934353350094
1013,10.228407144546509,-5.375627453404802,6.692910624004799,-0.7942454904034897,8.621093262327115
1014,10.232471942901611,-5.617912666382081,6.277223511834154,-0.8790499814546947,8.46978196971535
1015,10.243754148483276,-5.816504065497312,5.613683109808782,-0.9206405262936775,8.135891873664095
1016,10.25250506401062,-5.987355934200427,4.72965074710021,-0.9050968531993695,7.683568675167942
1017,10.2626531124115,-6.154858899088717,3.669068121130045,-0.82095958612293,7.212372951202084
1018,10.27251410484314,-6.347620733173135,2.4882820468145277,-0.6615028654906119,6.849921354129639
1019,10.282844066619871,-6.591787338948168,1.2514291152514176,-0.4269831396304342,6.7230982258141205
1020,10.294279098510742,-6.903479756247474,0.02597322862515392,-0.1260215987906867,6.904678761310019
1021,10.30306625366211,-7.28241869661641,-1.1217294160492597,0.22457618444143698,7.37172526741717
1022,10.31328821182251,-7.708600562091591,-2.13116267561513,0.6018382110750761,8.020385664550295
1023,10.32838010787964,-8.143247523199326,-2.9525660202231125,0.9802088053229687,8.717277994299643
1024,10.333155155181885,-8.53429407785669,-3.55128072336446,1.335698437891337,9.339692741223617
1025,10.34451413154602,-8.825371035351658,-3.910505421602744,1.6490731017447444,9.792786562511536
1026,10.353347063064575,-8.96603446582028,-4.031779061695647,1.9069949681974683,10.014072411029145
1027,10.363476037979126,-8.920632877195137,-3.933130884980585,2.101326362405958,9.973102925841346
1028,10.373569011688232,-8.673898745111641,-3.6453330269967106,2.2277034831997113,9.668900409416906
1029,10.383584022521973,-8.232489100687914,-3.2070371878016775,2.2843008319298996,9.125622970934304
1030,10.395349025726318,-7.62267045254339,-2.6597833656463847,2.2711158577176933,8.386746664793447
1031,10.403767108917236,-6.8850204093762954,-2.043766684231797,2.1897830056186174,7.5083711887998765
1032,10.41382122039795,-6.0674928477029075,-1.3948638806774771,2.0438009781592763,6.5526511536071705
1033,10.428584098815918,-5.218394731517214,-0.743009111860687,1.838925164607836,5.582593651275595
1034,10.43393898010254,-4.380619864211641,-0.11171902690870954,1.5834175199417275,4.659347870481175
1035,10.445383071899414,-3.587955692337403,0.4815898022204376,1.2879498770570512,3.8424171654819532
1036,10.454178094863892,-2.8636469507930804,1.0248650092688467,0.9651296461609672,3.1909712283110507
1037,10.464200973510742,-2.2208414913332106,1.5105367160354821,0.628728475976695,2.7584701551081454
1038,10.474500179290771,-1.6641760291710312,1.9346401389847774,0.2927304743337403,2.5686582984200443
1039,10.484436988830566,-1.1916670940047944,2.2960355922162226,-0.029672787657376146,2.5870311899907374
1040,10.49584412574768,-0.7962616134847891,2.595801555854076,-0.3270074167060558,2.7348038549527844
1041,10.504663944244385,-0.4667695546060552,2.836815185403446,-0.5902370102480272,2.9349231576839028
1042,10.516013145446776,-0.1882770047510431,3.0234275336727268,-0.8131840284774546,3.1365316108815473
1043,10.52830410003662,0.05762371271819772,3.1610790824929795,-0.9926273209201428,3.3137668077701523
1044,10.534802913665771,0.29239586967905534,3.255750748756163,-1.1281369219440052,3.458048755770367
1045,10.546380043029783,0.5396074635198473,3.3132823754880136,-1.221760598054869,3.572354304008102
1046,10.555341243743896,0.8233203040597146,3.3387291785981756,-1.2776745453862235,3.668435783140782
1047,10.56506609916687,1.1658561132390786,3.3359574502560645,-1.301873802188443,3.765993624997322
1048,10.575250148773192,1.5852029493254085,3.307539188529376,-1.301912931986155,3.891999634722532
1049,10.58521604537964,2.092597554258465,3.2547963603258867,-1.286627093449952,4.077753443855896
1050,10.596481084823608,2.6909821184788063,3.177824566971901,-1.2657128580201944,4.352238823798676
1051,10.605842113494871,3.3748592394724124,3.07554954876931,-1.2490538752523042,4.733795041662685
1052,10.616650104522703,4.131564850223165,2.946023325491467,-1.2457372236752964,5.225011270455749
1053,10.628343105316162,4.943423612932617,2.7870465735317653,-1.2628205000522912,5.813757927131748
1054,10.635554075241089,5.789929833338085,2.5970351248228214,-1.3040598457112078,6.478306182617352
1055,10.646831035614014,6.649153004979288,2.3760264788987624,-1.3689239705527665,7.19240504624198
1056,10.65584111213684,7.497974296182596,2.126721372910549,-1.4521976168336588,7.927890025886256
1057,10.665861129760742,8.31132820703154,1.8553640835991707,-1.5443075268465538,8.65479278695815
1058,10.67591404914856,9.061116866878136,1.572187183452873,-1.6323024787925542,9.340236763450337
1059,10.685960054397585,9.71568982337885,1.2912068385687832,-1.7012918256163965,9.947674990669093
1060,10.697582244873049,10.240598125941453,1.029313425022065,-1.7360887022438034,10.43759263844038
1061,10.706151008605955,10.600788717681173,0.8047126929745533,-1.722777482533198,10.769969647565132
1062,10.717573165893556,10.76384124787807,0.6348079231438769,-1.6499596159159393,10.908053274666429
1063,10.728549003601074,10.703601649633127,0.5337072595435379,-1.5095768741820579,10.822696246868603
1064,10.736412048339844,10.403636906181895,0.5097172682610964,-1.297398057171586,10.49660489339225
1065,10.747805118560793,9.860101056632343,0.5632723683924374,-1.0133393138185562,9.928027254844082
1066,10.756542205810549,9.083733026903413,0.685674799484511,-0.6617597808539868,9.133579891929555
1067,10.766634941101074,8.10084155060456,0.8589158673996344,-0.2518375196867709,8.150140638761648
1068,10.77674913406372,6.9533030851608935,1.056813020550843,0.20192130124772237,7.036053564777017
1069,10.786786079406738,5.697657105059816,1.2476752879777768,0.6791407656145418,5.8720713798955595
1070,10.798219203948976,4.403146657385421,1.3986518274210766,1.1533092946724193,4.761727601403773
1071,10.80705714225769,3.148091162526581,1.4817747354115782,1.5922396754740864,3.8264032090510063
1072,10.818432092666626,2.01369335517539,1.4810526809819546,1.9598021081650823,3.1763662061685607
1073,10.82834815979004,1.0749585819737797,1.398226494977802,2.219462155759597,2.8348872191087295
1074,10.837275981903076,0.39007990252691327,1.2532805598973182,2.3396993672700224,2.682735100858019
1075,10.8486590385437,-0.008908273866872776,1.0778616306426922,2.3004772436646372,2.5404843240559187
1076,10.857362270355225,-0.12167869260978448,0.9049080563564115,2.0989977832857365,2.288985799198501
1077,10.867403030395508,0.019923407524066825,0.7599887082382476,1.752505929134927,1.910302805962993
1078,10.87761116027832,0.35686491558221695,0.6569547884217377,1.296714133919805,1.4967998219906171
1079,10.887564182281494,0.8126822568971113,0.5974916450677619,0.7804075243386601,1.275337061582372
1080,10.898895263671877,1.305946512747746,0.5736089620264118,0.25809267553195103,1.4495293597020578
1081,10.90786600112915,1.7626735373587052,0.5719343882602523,-0.21773495523658093,1.8658873102390605
1082,10.917837142944336,2.126241226728927,0.5782814196037389,-0.6036764560094557,2.284674247686261
1083,10.92801308631897,2.3631765258591324,0.5812230113964147,-0.8708494243057545,2.5847247824791753
1084,10.937993049621582,2.4641434976133314,0.5740223356666229,-1.0077323033663634,2.7234223348431112
1085,10.94930911064148,2.440487069783279,0.5548236106722986,-1.020094757771272,2.702665294033142
1086,10.958246231079102,2.317597014850881,0.5254920920653251,-0.9283412638474923,2.5513163982992912
1087,10.96829915046692,2.1269801604892766,0.489775506024243,-0.7629731794196963,2.312153265233534
1088,10.978384971618652,1.899060372675232,0.45148545097141146,-0.5589991210621401,2.0304554732503974
1089,10.988892078399658,1.6582440757432984,0.4132497251875411,-0.35022275124698576,1.744478353433006
1090,10.999867916107178,1.4208597417077917,0.37608440683914585,-0.16440059488214115,1.4789555241017516
1091,11.0087890625,1.1956104713846412,0.33967439947547456,-0.02009156721158999,1.243087594667667
1092,11.018670082092283,0.9855709683238122,0.30302674691502685,0.07442413272811943,1.033786387258496
1093,11.028692245483398,0.7906863605153245,0.26515674464790767,0.12029528464905032,0.8425936004065313
1094,11.03919506072998,0.6100393033699448,0.22559752587453102,0.1258148855499743,0.6624738340212015
1095,11.050092220306396,0.44350999664075624,0.18465392832953872,0.10333697642518475,0.49140280937792086
1096,11.059064149856567,0.2926563063328196,0.14339554221303594,0.06604729923935053,0.3325240455963328
1097,11.069043159484863,0.16073700783896358,0.1034309744920292,0.025216831002144988,0.1927958524947686
1098,11.079246044158936,0.05192688564324349,0.06654807454926885,-0.011519837738106466,0.08519245471480344
1099,11.08915114402771,-0.030023059874753566,0.034327663518121616,-0.040578328334174366,0.06104402785901725
1100,11.100758075714111,-0.08322310229620877,0.007827592126840147,-0.061675606175878445,0.10388087577351018
1101,11.109498023986816,-0.10867293443842536,-0.012600491852399913,-0.07643574020680785,0.13345786396965642
1102,11.119375228881836,-0.11055079350007413,-0.02733583262132191,-0.08694889946123598,0.1432788777388945
1103,11.12962007522583,-0.095724198964549,-0.03735991220974662,-0.09469988691098324,0.13973887751330177
1104,11.139470100402832,-0.07266453266419273,-0.04401303592831896,-0.10004605069028125,0.1312497386574745
1105,11.150929927825928,-0.050027621874179126,-0.04869941733314527,-0.10224659094769349,0.12380937589455272
1106,11.159872055053713,-0.03516365279668524,-0.052602208523198565,-0.09991465982835532,0.11826417068639111
1107,11.169902086257936,-0.03284359638369253,-0.05645946227312682,-0.09168043357379156,0.11256853292045668
1108,11.180016040802002,-0.04452874672529898,-0.06044955375873044,-0.07683108014234205,0.10742426499815791
1109,11.190002918243408,-0.06843293769786944,-0.06421516923882269,-0.055726072939380644,0.10914233884050814
1110,11.201497077941896,-0.10037826515777233,-0.06700858690493142,-0.02987172269454303,0.12433127785002242
1111,11.210416078567505,-0.1351617764843433,-0.06790662784846045,-0.0016634172389968093,0.15127056185875648
1112,11.220339059829712,-0.16800303966391214,-0.06604014626102266,0.02607942671151238,0.18239095030207075
1113,11.230524063110352,-0.19567165205294973,-0.06078007904918563,0.05060613437414118,0.2110511650350443
1114,11.240562915802002,-0.2170454256106004,-0.051823350080440256,0.06960681003168287,0.23375090244709928
1115,11.25173306465149,-0.23305699609413638,-0.039172494181828166,0.08139667434145603,0.24995092782923753
1116,11.26074504852295,-0.24617340061589751,-0.023075280917345512,0.08491634920059488,0.26142799796840227
1117,11.270847082138062,-0.2596535716818131,-0.003999578553822274,0.07960389774068946,0.27161140338954987
1118,11.280942916870115,-0.2768300819569493,0.017343724264171835,0.06524221214654757,0.2849425298080615
1119,11.291054248809814,-0.300584957706751,0.03998574105961273,0.04188130525211799,0.30611145032042947
1120,11.302465915679932,-0.33306891544923034,0.06276906354349922,0.009845903589143636,0.33907491737688455
1121,11.312541007995604,-0.3756116784352428,0.08452947981311702,-0.030250537113115532,0.3861922590239845
1122,11.321115970611572,-0.4287400599837933,0.10433808781571821,-0.0775491604906324,0.4480160129914433
1123,11.331356048583984,-0.4922500298199371,0.12171485041145,-0.13101609351303478,0.5237268500161385
1124,11.341417074203491,-0.5653215375573363,0.13674524724120293,-0.18945094222972964,0.6117020213968406
1125,11.35263705253601,-0.6466822784338343,0.1500713886663023,-0.2513765303280412,0.709865868271163
1126,11.361808061599731,-0.7348047292487501,0.16277079089896382,-0.3148266604808193,0.8158113425576456
1127,11.372136116027832,-0.8280720125418689,0.17617745383310282,-0.3771017748859807,0.9267942068314913
1128,11.381755113601685,-0.9248162252449355,0.19172263335414483,-0.4345955356337656,1.0396710528861226
1129,11.391849040985107,-1.0231765477834893,0.21087052827578603,-0.48281134059766656,1.1508533434974084
1130,11.403340101242064,-1.1208482881755695,0.2352069118438165,-0.5166431712377942,1.256400948293121
1131,11.4134259223938,-1.2149064453990235,0.26669106739293275,-0.5308946795819843,1.3523945272396403
1132,11.428544998168944,-1.3018954750067202,0.3079937477093176,-0.5209329077555465,1.4356751271975332
1133,11.432199954986572,-1.378287105337312,0.3627835899309055,-0.4833502490659386,1.5049633687018322
1134,11.44224214553833,-1.4412784100663423,0.43586453078516746,-0.41651637385228196,1.5622891007131143
1135,11.453562259674072,-1.4897774438318048,0.5331632925864064,-0.3209412752082304,1.614528795297219
1136,11.462358951568604,-1.5253451131961002,0.6616112521204441,-0.199424031338084,1.6745677375247436
1137,11.472540140151978,-1.5528568085548855,0.8289254321966267,-0.05698189976903704,1.7611725006139851
1138,11.482673168182371,-1.5806980989287467,1.043229846394473,0.0994365199721073,1.8965290964995376
1139,11.492736101150513,-1.6203807125882983,1.312443577998579,0.2613858536892132,2.101538570587443
1140,11.504148006439207,-1.6855508403096902,1.6434112934515592,0.4193546689064093,2.3911797617591266
1141,11.513973236083984,-1.790469206187871,2.04082899829133,0.5630715836702311,2.7726904960544587
1142,11.528670072555542,-1.948155601635877,2.506074834930387,0.6817403132256339,3.2466122622101947
1143,11.532932043075562,-2.168472930449982,3.03606195146684,0.7644069796716728,3.8084465407577586
1144,11.543052196502686,-2.4564512856338996,3.6222063776841624,0.8006406604853719,4.449219867398184
1145,11.554388046264648,-2.8111227188373693,4.249604392419391,0.7815784370454036,5.1548436722841675
1146,11.563218116760254,-3.225070311232735,4.896564573746722,0.7012633129194692,5.905014256656203
1147,11.573145151138306,-3.68480502988375,5.5346942649102235,0.5580844541123134,6.672487315252726
1148,11.583357095718384,-4.17198074885109,6.129736101425399,0.3560214106566583,7.42333074076239
1149,11.593469142913818,-4.665357764616556,6.6432695657482705,0.10537891997422384,8.118478817601247
1150,11.604599952697754,-5.143338882183286,7.035265356639319,-0.17722108736458933,8.716667987775745
1151,11.614848136901855,-5.586824072090586,7.267340379237856,-0.4697236347921219,9.178642584460635
1152,11.628278255462646,-5.98204198241512,7.306421999593464,-0.7464138479516427,9.472368360021392
1153,11.633756160736084,-6.322898890672946,7.12842436804915,-0.980444589029133,9.578870285416054
1154,11.64377212524414,-6.6122688969521715,6.7215224106002,-1.1468784064135185,9.49822581121861
1155,11.655643939971924,-6.861664736245425,6.0886508416363245,-1.2258910695345957,9.255102427221289
1156,11.664050102233888,-7.088999670005166,5.248849807535239,-1.2055617404482741,8.902680480250245
1157,11.67412519454956,-7.3146336098666564,4.2370744254211985,-1.0835579242531996,8.522368350896434
1158,11.684126138687134,-7.556423705965362,3.102254120311054,-0.8673051450055609,8.214361695568032
1159,11.694361209869385,-7.824888191290038,1.9036661262300558,-0.5727317871647105,8.073465279938652
1160,11.706112146377563,-8.119650246747547,0.7058757562273006,-0.22202911759907765,8.153298574307136
1161,11.714505195617676,-8.427974675475976,-0.42730986649345576,0.15903602575429823,8.440298768998332
1162,11.728879928588867,-8.72564517033822,-1.4390204646847917,0.5438651624614679,8.860217426867559
1163,11.734536170959473,-8.97998727636973,-2.284418574222705,0.9076609236147732,9.31034843914411
1164,11.744592189788818,-9.154607132872142,-2.9337453594679648,1.2297352476643952,9.691539731682553
1165,11.756375074386597,-9.21514854443706,-3.373150106932659,1.4950681517504234,9.926345405954736
1166,11.764923095703123,-9.134954970258452,-3.6037314760553976,1.6947863323496142,9.965268866040748
1167,11.774919986724854,-8.899299714267924,-3.6392626861240736,1.8256185451661673,9.786452440769269
1168,11.785053253173828,-8.507204707846881,-3.5029946248722634,1.8886827813281035,9.392051210016978
1169,11.795238971710203,-7.970698270781577,-3.2240390421504395,1.8880633661481219,8.802910992605874
1170,11.806817054748535,-7.312171597232293,-2.8339395503791334,1.8295983687948962,8.052732271326963
1171,11.815337181091309,-6.56087304936206,-2.3639140478033385,1.7200986098444468,7.1827490574874036
1172,11.829416036605837,-5.749468280140433,-1.8429406018313037,1.5669502953302246,6.2376396813421975
1173,11.835418224334717,-4.9112134499735,-1.296568065190553,1.3779007967230665,5.263052052230022
1174,11.845510959625244,-4.07789625803538,-0.7462134462278228,1.1608435707811553,4.305070289142106
1175,11.85735011100769,-3.2784286272738443,-0.20875400198480049,0.9235241999442031,3.4124140202144164
1176,11.865636110305786,-2.537847311397338,0.3036641629460609,0.6731976450770766,2.643118606714755
1177,11.875725269317629,-1.8764691077263607,0.7835889133921373,0.41631273785977385,2.07568403018059
1178,11.88575315475464,-1.3090182755695816,1.227961806554651,0.15826710449278547,1.8017956378281788
1179,11.89595913887024,-0.8436620285367344,1.6375544597883314,-0.09677228301568691,1.8446449799154958
1180,11.907355070114136,-0.481028564806244,2.016175213646742,-0.3459799870041211,2.1014407257142453
1181,11.91608715057373,-0.2134040711440972,2.3696683076409393,-0.5878717331747543,2.45080851159054
1182,11.929683208465576,-0.02435982559798348,2.7047002758655685,-0.8221548522034008,2.827001164550882
1183,11.936158180236816,0.1109783263921046,3.027355784766578,-1.0494471555142209,3.2060159963271153
1184,11.9462251663208,0.22490009280340695,3.3416598378936997,-1.2709206601391119,3.58224927221755
1185,11.95765495300293,0.3552795729223129,3.6482345124937003,-1.4879140408315839,3.9559735623471726
1186,11.966482162475586,0.5429308079580406,3.943324924255738,-1.70152956917166,4.328947700683388
1187,11.976529121398926,0.8281556835243487,4.2183984372667584,-1.912227227535697,4.705033494186536
1188,11.986550092697144,1.24657498610162,4.460448867939538,-2.119450816554992,5.093292163549327
1189,11.996889114379885,1.8245628262059963,4.6530135740444205,-2.3213485540367182,5.510737149995707
1190,12.008049011230469,2.5749496559562117,4.777794228499983,-2.5146693798395625,5.981742681735771
1191,12.01696515083313,3.493909225035001,4.816779147607683,-2.6949090391333685,6.532327131950421
1192,12.030519962310793,4.559863464016455,4.7548324640987305,-2.8567224748427593,7.180644112500708
1193,12.037020206451416,5.734795185824481,4.582593425470713,-2.9945049897479707,7.928120739503691
1194,12.047061920166016,6.96772049772791,4.299199492100843,-3.1029271009483286,8.75559260136842
1195,12.05853796005249,8.199492580768569,3.914127881304874,-3.1771997642307683,9.625314228383145
1196,12.06732702255249,9.367855724464274,3.447560528442964,-3.213006119605808,10.486458067254183
1197,12.07737112045288,10.411876138999231,2.9290319137242915,-3.206247018238704,11.281241626143883
1198,12.087419986724854,11.275381222479215,2.394534319050806,-3.152833072008524,11.95024571702606
1199,12.097515106201172,11.909512604944704,1.882572143245352,-3.04868712522156,12.436842909249593
1200,12.110327243804932,12.274727666103527,1.4297680690534216,-2.889989844497333,12.691147202266224
1201,12.117877960205078,12.342565777127083,1.0665697784450796,-2.6735937376383947,12.673776253703561
1202,12.13120412826538,12.097368979974231,0.8135443956912922,-2.397523927598814,12.359462435915743
1203,12.137782096862791,11.538055268581203,0.678728053770661,-2.0615828619028544,11.740422268738945
1204,12.147961139678957,10.679935336928402,0.6564041007953155,-1.6681428321941663,10.829339114327968
1205,12.159191131591797,9.556295700302881,0.7274827667927137,-1.223130906583957,9.661680387088397
1206,12.168009042739868,8.21916737544815,0.8615066319993588,-0.7370481817021267,8.296996206143554
1207,12.178215026855469,6.738644518233599,1.0203126646514329,-0.22574940697113943,6.819188417364317
1208,12.188156127929688,5.200275424306107,1.1634338806626356,0.2892990793578687,5.336678446433989
1209,12.198410034179688,3.7001283448551,1.2552199532972872,0.7815398702186171,3.9846369305492715
1210,12.210938930511476,2.337179192074032,1.272981330391305,1.2209705917551652,2.928080809902555
1211,12.21851921081543,1.2032698374375976,1.2137304370701956,1.577181873233963,2.325618742789863
1212,12.230911254882812,0.37222986098131655,1.0955220073594416,1.8231813005203865,2.159331746763854
1213,12.23903512954712,-0.10942815898520465,0.9511605022221569,1.9386064152221099,2.1621460764959237
1214,12.248637199401855,-0.22862057799869817,0.8170942005349795,1.9120355081776614,2.091838924430981
1215,12.260152101516724,-0.008110737744115092,0.7231662017696946,1.74365807866853,1.887691350500603
1216,12.26879906654358,0.49526922891098574,0.6866081572455695,1.448363700562827,1.6776411355860004
1217,12.278890132904053,1.1971947800201348,0.7102251109341996,1.0568637497887678,1.7477574302878907
1218,12.28925609588623,1.9967755738594606,0.7837176148548672,0.612698606536204,2.2308575872625727
1219,12.299147129058838,2.7899565681712257,0.8873533923197282,0.16541005685241691,2.932339370204447
1220,12.3113112449646,3.4828981226227294,0.9970304934681995,-0.23808842320486887,3.630610862477354
1221,12.319358110427856,4.003061538866312,1.0894863541357713,-0.561369884414422,4.186480424763293
1222,12.331937074661257,4.306275888627878,1.1465599996111675,-0.7832675880289954,4.524612687970423
1223,12.33927297592163,4.378787661698994,1.1577628120018946,-0.8986242789790269,4.617544987314412
1224,12.349523067474363,4.234373031500995,1.120791717122137,-0.9159399664990644,4.474934085023245
1225,12.360743045806885,3.9078282295773135,1.040225460524523,-0.8536022325996715,4.133016725359814
1226,12.369609117507936,3.446827960890069,0.9252536068875843,-0.7357903097182791,3.6439133646270183
1227,12.379703998565674,2.9039061976057434,0.7873471840575916,-0.5884239331129661,3.0657510528085283
1228,12.389667987823486,2.329652766416572,0.638335357554411,-0.4354458958300891,2.4544586305276717
1229,12.399915218353271,1.7676873444285,0.4889687932654239,-0.29594756743706124,1.8577927739960776
1230,12.412210941314695,1.251614681388173,0.34797120091558,-0.18257171151044818,1.3118520103948093
1231,12.420012950897217,0.8038561477052497,0.22159938946255753,-0.1012035990534475,0.8399602157692193
1232,12.432132244110107,0.43602298830998887,0.11367006369249036,-0.051651191424738556,0.453546883232839
1233,12.44020414352417,0.15040018934625016,0.025906182684451447,-0.029033152506840108,0.15535208785579133
1234,12.450330257415771,-0.057895557193843296,-0.04159019392336076,-0.025650206197549402,0.0757599686598743
1235,12.461596965789797,-0.1984959055606638,-0.08988300284217364,-0.0330220092953248,0.22038609716171906
1236,12.47047209739685,-0.2834709340345585,-0.12082025683676192,-0.04369168129800031,0.31122703597080403
1237,12.48061203956604,-0.3254288028861261,-0.13672694245271708,-0.052455396988132695,0.3568609410030023
1238,12.490710258483888,-0.33619714245601334,-0.1401703008657194,-0.05681779618837965,0.36865226678277657
1239,12.50081205368042,-0.3260855046990601,-0.13379478870709396,-0.056687553229384305,0.356996191227793
1240,12.51207709312439,-0.3035808681323642,-0.12020413292867806,-0.05356943628360297,0.33087771392597326
1241,12.520918130874634,-0.27527760977803123,-0.10185315907617853,-0.049626126804568516,0.29768201309539427
1242,12.533239126205444,-0.24588691243453317,-0.08092880200452895,-0.04691088651414529,0.2630788398446729
1243,12.54102897644043,-0.21825766825868437,-0.059230190795215444,-0.046915754557769716,0.2309669094937204
1244,12.551116943359377,-0.19342821661631684,-0.03807020984703233,-0.050430708830832276,0.2034872778685342
1245,12.562408924102783,-0.17078794843994932,-0.01822752017852909,-0.0575965959623889,0.1811577591234782
1246,12.571342945098875,-0.14844228770875598,7.961256460124256e-06,-0.0680051567851427,0.16327833350742693
1247,12.58171319961548,-0.12383387097726416,0.01667664888370422,-0.08076994524844008,0.14878414658370048
1248,12.591533184051514,-0.09457821009181855,0.03193799557706832,-0.09459371264319527,0.13752470271655345
1249,12.60167121887207,-0.05936050760461252,0.04591534756900896,-0.1079049439565188,0.13143578635866116
1250,12.612811088562012,-0.018679425600818325,0.058647820130325296,-0.1190993232464418,0.1340639270817319
1251,12.628002166748049,0.024753626076369144,0.07009981538624434,-0.12684306578858937,0.14702343166911405
1252,12.634727001190186,0.06607358402179918,0.08015866770967278,-0.13034369171065163,0.1666751585667069
1253,12.641900062561035,0.09879411258639623,0.08861809832748539,-0.12949487535190343,0.18542482782874142
1254,12.651961088180542,0.11571891063963538,0.09519921610492732,-0.12484136993286273,0.1950362137484484
1255,12.663272142410278,0.11003720435411689,0.09964212299113873,-0.11737677105041748,0.18924599176329474
1256,12.672471046447754,0.07635182047315629,0.10184664072486435,-0.10825982940314013,0.16710035720758257
1257,12.68226408958435,0.011410126562177242,0.1020061236260676,-0.0985733376983644,0.142310024771192
1258,12.69234323501587,-0.08557714835861122,0.10068070190452545,-0.08922149374379491,0.15943816043549208
1259,12.702393054962158,-0.21297993039721064,0.09878929507484026,-0.0809778519351901,0.24834892405126727
1260,12.713848114013672,-0.36698981387380936,0.09754165965945145,-0.07461288832974064,0.3869922246779124
1261,12.729401111602783,-0.5418970790117088,0.09835070217129964,-0.07099351860845082,0.5553065680715638
1262,12.736338138580322,-0.7303521607074683,0.10275672427363337,-0.07105638700115828,0.7409603452055809
1263,12.742769241333008,-0.9236842756654605,0.11238281308979488,-0.07560052533938962,0.9335619835989435
1264,12.752872943878174,-1.1123945811935443,0.12893250885337096,-0.08491139299011091,1.1230562055246862
1265,12.7642240524292,-1.286880394168672,0.15422469614266113,-0.09829424858320043,1.299810818965802
1266,12.772926092147827,-1.4383421007964083,0.19023569712472607,-0.11365007345936738,1.4553123233798564
1267,12.783116102218628,-1.5597487934271606,0.23910321247849556,-0.12726970888797293,1.5830932453950555
1268,12.793174266815186,-1.646706606776382,0.30306722455208795,-0.13401485712744213,1.67971794457569
1269,12.803442001342772,-1.698065835676769,0.38439816763363693,-0.12796230344412057,1.7457273225436631
1270,12.814633131027222,-1.7161343301192853,0.4854425108820294,-0.10344194251263364,1.7864690609848815
1271,12.829039096832275,-1.706480002680689,0.60888162801424,-0.056263226022862455,1.812726230594365
1272,12.835600137710571,-1.6774707674446725,0.7581417699806069,0.015164617892870226,1.8409011610232044
1273,12.843640089035034,-1.6397724161994387,0.9377704475601303,0.1091227492750432,1.8921349750097154
1274,12.853636264801024,-1.6059163217864931,1.1536058751459235,0.2204821301146104,1.9895693296418016
1275,12.865039110183716,-1.5898536194634556,1.4126328067160145,0.3412189386551263,2.153972224061477
1276,12.873836040496826,-1.6062968549551158,1.7224484328402043,0.46137317587893484,2.3999757076797645
1277,12.883896112442017,-1.6696854730295168,2.0902703362450383,0.5701960411352961,2.735361618279768
1278,12.893936157226562,-1.7927517160938995,2.521467727815422,0.657270638027788,3.162872572454626
1279,12.911288261413574,-1.9848261408790808,3.01770147803099,0.7135041471491257,3.6817312759116962
1280,12.915657997131348,-2.250150295437566,3.574878577001949,0.7319702576139856,4.287040196965353
1281,12.924270153045654,-2.5865292359241447,4.181241830442147,0.7085670710145812,4.967392075028477
1282,12.934186935424805,-2.984649242956013,4.8160137547568125,0.642417456051564,5.7021767578113955
1283,12.944343090057371,-3.4283189581827287,5.449031775218489,0.5359577025949079,6.460074986046732
1284,12.954479217529297,-3.895783028807105,6.041704276154405,0.3947261753538931,7.199661431036421
1285,12.965882062911987,-4.362113126343649,6.549434933079985,0.22694732986622826,7.872396964089234
1286,12.974616050720217,-4.8025100981702415,6.925459598531913,0.043075859739284905,8.427808103155721
1287,12.984632015228271,-5.196168385467295,7.125775854094278,-0.1445629387819944,8.82030304786588
1288,12.994733095169067,-5.53016583151135,7.114490665513768,-0.3220705309009721,9.016786621661455
1289,13.012492179870604,-5.802649762399972,6.868603560650388,-0.4744588668540135,9.004086314268429
1290,13.01686191558838,-6.024436600229095,6.381246809290239,-0.5866467304610853,8.795356819232376
1291,13.025115966796877,-6.218162222759015,5.66286769499102,-0.6451144683314025,8.435033173424438
1292,13.035092115402222,-6.414517182012053,4.740555540456519,-0.6399916517787272,8.001780228475868
1293,13.045450210571287,-6.645945270817882,3.656183342043029,-0.5670167210900897,7.606429723289058
1294,13.055706024169922,-6.9391588959906985,2.4638630473797347,-0.42872518657363407,7.376066199923425
1295,13.066789150238035,-7.308343586536697,1.2266020991670805,-0.23444223605058168,7.414270149556027
1296,13.075578212738035,-7.750653826663447,0.011726290445805886,0.0009671174284792802,7.75066275759541
1297,13.085609912872314,-8.24481025150772,-1.114927896668561,0.2592627498947457,8.323891966599493
1298,13.095652103424072,-8.752875628223137,-2.095210257263569,0.5212909126627195,9.015236103447862
1299,13.114109992980955,-9.2248727061535,-2.883879292496182,0.7690632067695637,9.695694633930605
1300,13.118894100189207,-9.60558991420645,-3.451693392419958,0.9870908511666204,10.254554755016771
1301,13.125957012176514,-9.842505520887455,-3.786065363159684,1.1630975735387532,10.609524109421178
1302,13.135886192321776,-9.89341347475553,-3.8898474876712354,1.28841489305735,10.70843390027078
1303,13.146079063415527,-9.732343829899442,-3.7790817659422515,1.3581592373059665,10.528274879149881
1304,13.156237125396729,-9.35278981069936,-3.4802781138463845,1.371107706669842,10.073080429348776
1305,13.167704105377195,-8.767864857740765,-3.027441678215395,1.329258032297119,9.3705807821622
1306,13.17633605003357,-8.007613996422169,-2.458931322420975,1.237197118737668,8.467519227890302
1307,13.18660593032837,-7.1142379952513535,-1.8143115838283732,1.1014280945464363,7.4240994486703915
1308,13.196503162384031,-6.136355559953303,-1.1315015471817795,0.9297474904022707,6.308691283091439
1309,13.207650184631348,-5.123467187316389,-0.4445234197605963,0.7307070028541739,5.19436712355254
1310,13.218003034591677,-4.121495104079112,0.21801015436224108,0.5131568215087114,4.159035975296927
1311,13.228936195373535,-3.1698242284665996,0.8337211087005933,0.28584443179768865,3.2900734894005885
1312,13.236708164215088,-2.2998216414926302,1.3867670507380772,0.057042867992395226,2.686178758846745
1313,13.246910095214844,-1.5344764781234976,1.8677977988285146,-0.16580149410474965,2.4229685954775197
1314,13.25686502456665,-0.8886545122688291,2.273682513906093,-0.37639458165817324,2.470022651175433
1315,13.26853895187378,-0.3695138362029453,2.607015522151733,-0.5698622881898305,2.694032931384923
1316,13.27713704109192,0.023192946310268636,2.8753211036802337,-0.7429044795199123,2.9698344108246544
1317,13.287137031555176,0.29700903008326035,3.0898758150088805,-0.8937958108270483,3.2302349554761145
1318,13.297261238098145,0.46679016472618906,3.264161295580504,-1.0222600896024208,3.4521960709445296
1319,13.312389135360718,0.5546848709070814,3.4120739165417286,-1.1293069097650095,3.636654756008688
1320,13.318599224090576,0.5898534304928428,3.5460700859980894,-1.217114253484964,3.7952479800812666
1321,13.327479124069214,0.6076939976023019,3.6754274758007717,-1.2889696703142082,3.9420174955957537
1322,13.337491989135742,0.6484041644765329,3.804804872488352,-1.3492061751830753,4.0886825972889795
1323,13.34777307510376,0.7548017757027691,3.9332915694579635,-1.4030339906180025,4.2437027075188265
1324,13.357805252075195,0.9694131228261847,4.054124545511543,-1.4561780674673672,4.415443601428942
1325,13.369205951690674,1.330893650160757,4.155208135488236,-1.5142735653198123,4.61844746510039
1326,13.377989053726196,1.869921003529613,4.220475102560437,-1.5820387496734942,4.879739875878856
1327,13.388004064559937,2.604889430218616,4.231936127411681,-1.662328103197978,5.240044565921041
1328,13.398064136505129,3.538050017885618,4.172063037716709,-1.755247402992795,5.744980536560185
1329,13.412084102630615,4.652964933026935,4.026189138274138,-1.8575365132514394,6.427341872282608
1330,13.419352054595947,5.914007443231322,3.7848864016913515,-1.9623675934848175,7.290523690672912
1331,13.428444147109984,7.268146527589703,3.4463590273053724,-2.0596238872393267,8.303336380545494
1332,13.438930988311768,8.648648819645048,3.0185430124578874,-2.1366711222850863,9.406173069235598
1333,13.44864010810852,9.979893183633617,2.520208858351652,-2.179581311920896,10.521420785318192
1334,13.45864725112915,11.182452714129347,1.980379731617124,-2.174689969987053,11.56280368469088
1335,13.47002410888672,12.177983565521348,1.4357937737247386,-2.110280746027894,12.442591060941883
1336,13.478924036026,12.894014316204741,0.9266820721335128,-1.9781122301552851,13.077739592314735
1337,13.489468097686768,13.269054533970975,0.49155647777431977,-1.7744843487718656,13.396202099863
1338,13.49901008605957,13.258263863108722,0.16187765041022603,-1.5006991958900149,13.343907340582888
1339,13.512572050094604,12.839386467101395,-0.042552075307488384,-1.1630605738030033,12.892027204013898
1340,13.520356178283691,12.018163426287739,-0.11673462020219841,-0.7726967181788006,12.043543470706547
1341,13.5293390750885,10.832143083640641,-0.07158494867480834,-0.3453484143304481,10.837883267346125
1342,13.539463996887209,9.351680942586594,0.06735852625566947,0.098934440819894,9.352446826717433
1343,13.549510955810549,7.67708841771934,0.26376911098438144,0.5362869910425239,7.700315867167489
1344,13.559515953063965,5.9314583875897595,0.47678690918433025,0.9398532677180472,6.024354614837904
1345,13.571054935455322,4.249421856390407,0.669009056689474,1.281412824452771,4.488560800320418
1346,13.579895973205566,2.7626905497552308,0.8146386069646218,1.534479358826833,3.2635443977874314
1347,13.58964705467224,1.58398268431961,0.9051829861645535,1.678654745765807,2.4791609746339995
1348,13.599915981292725,0.7920561459772062,0.9496500782573868,1.703676749486659,2.105160962077711
1349,13.613065242767334,0.4210527613712175,0.9681213456154966,1.6116533807495796,1.9266476033193607
1350,13.621097087860107,0.45620881286700565,0.9817909032203798,1.4172944860082335,1.7834695171639896
1351,13.63004207611084,0.8364114502600667,1.0047124108946592,1.146560886104313,1.7388596861955867
1352,13.639965057373049,1.4633570652911851,1.0401529551362951,0.8335293206426312,1.9794199147698206
1353,13.65016222000122,2.2163149804911755,1.081251385647034,0.5149631333986222,2.519195046135364
1354,13.660291194915771,2.9701084746370086,1.1146618674190865,0.22334776337694068,3.1802357857860577
1355,13.671800136566162,3.612937946051796,1.125748656402667,-0.01897142044911581,3.784308464463123
1356,13.680521965026855,4.060709209801686,1.1035214356693361,-0.2018071547444979,4.2128191242036515
1357,13.69044303894043,4.265343611191799,1.0435853681767504,-0.32498853989519827,4.4031629646505825
1358,13.70198392868042,4.216082902279328,0.9484038060738091,-0.3944246917038145,4.339400379740618
1359,13.71273708343506,3.934755562874462,0.825536362450507,-0.4190383036356331,4.042202954480808
1360,13.722336053848268,3.4672971146067706,0.6852194628940284,-0.40936996863324027,3.5579852113953474
1361,13.73072910308838,2.8738567570532108,0.5383095261488346,-0.37692431945620514,2.948033539259773
1362,13.740698099136353,2.2191360732226437,0.39485261364964963,-0.33315946815955527,2.2784794774604253
1363,13.750878095626833,1.564050387328545,0.26316457601232657,-0.28798337145256525,1.6119688676905348
1364,13.761049032211304,0.959490496544968,0.1493211205987173,-0.2484489657647827,1.002320157737315
1365,13.772956132888794,0.4425755988569198,0.05699799826297413,-0.21825914571766375,0.4967484143899723
1366,13.781196117401125,0.03531410149464053,-0.012422489731307143,-0.198059979695412,0.20156676207263244
1367,13.791321039199827,-0.2547361807124144,-0.05956183137124808,-0.18614141222866956,0.32107126758202503
1368,13.802672147750854,-0.43232730666148483,-0.08663388096402058,-0.17929188120759684,0.4759809955061448
1369,13.812499046325684,-0.5114412253408623,-0.09696736481644565,-0.173751999057885,0.5487846153038728
1370,13.823282241821287,-0.511828328035877,-0.09451847474978464,-0.1661863849166656,0.5463697410917785
1371,13.831629037857056,-0.4556967801897024,-0.08341990673911835,-0.1544588403341206,0.48834001440900426
1372,13.841727256774902,-0.36496610259653883,-0.06759785154227403,-0.13798661778479226,0.39599246490978207
1373,13.851737022399902,-0.25930124044868014,-0.050477570787741,-0.11761343886313302,0.28916783958813186
1374,13.861793041229248,-0.15493226859125409,-0.03478552456582546,-0.09513402450854501,0.1851067886095607
1375,13.87374210357666,-0.06410917833989921,-0.022437148883588443,-0.07268657723535672,0.09948241506735145
1376,13.881996154785156,0.005012372536411049,-0.014493451970583812,-0.052209518299679424,0.05441523527057425
1377,13.89213800430298,0.04821241524086696,-0.011187331296216707,-0.03509725476005236,0.06067462943093356
1378,13.90345811843872,0.06484678983552107,-0.01203336039792171,-0.022103950083395368,0.06955927345600832
1379,13.912175178527832,0.057297346863696946,-0.016018268698531814,-0.013451337157707941,0.060995978236663285
1380,13.923815250396729,0.03023281930996507,-0.021840184723980055,-0.009036735923795733,0.03837550818377509
1381,13.932467937469482,-0.01028885076906783,-0.02814910020722781,-0.008625586374717054,0.03118706515420143
1382,13.942533016204834,-0.05779195563255772,-0.03374396540374303,-0.0119412554245751,0.06797910648220871
1383,13.952617168426514,-0.10629504585373661,-0.037696266317354954,-0.018629184557214844,0.11430963119782904
1384,13.962602138519289,-0.15102293368891356,-0.03938994272965129,-0.028155208200585733,0.15859448236640997
1385,13.974286079406738,-0.1888233519980686,-0.03848923393091494,-0.03974955708721405,0.19676307244248067
1386,13.9828519821167,-0.2182701142267147,-0.03486622994112375,-0.05248182001524817,0.2271823896937509
1387,13.993017196655272,-0.23951280329424346,-0.028534088771329725,-0.06546755254990184,0.24993314626265808
1388,14.003859996795654,-0.2539841090258192,-0.019628470488344006,-0.07813265026752993,0.2664543404209793
1389,14.013171195983888,-0.2640800270842369,-0.008448689021178138,-0.09042806959639539,0.27926130562954543
1390,14.024171113967896,-0.27289018515530483,0.004476752130232482,-0.1028893819202281,0.2916767378034434
1391,14.033370971679688,-0.28399515519506535,0.018374512036019922,-0.11648541815984564,0.30750564793301793
1392,14.043321132659912,-0.3012816878751069,0.03233626819271177,-0.1322897992359939,0.3306310340415792
1393,14.053343057632446,-0.32869336183304126,0.045557413743577385,-0.15107733364611645,0.36460823468721887
1394,14.063473224639893,-0.3698660412416307,0.05760133310051614,-0.17296568213106728,0.4123541308557217
1395,14.075197219848633,-0.4276573176015967,0.06856735533188449,-0.19721949321145904,0.4759073355370629
1396,14.083652019500732,-0.5036178192845164,0.07913155789369972,-0.22229855717488306,0.5561558773200285
1397,14.093770027160645,-0.5974875177587764,0.09050913848223269,-0.24613413114635752,0.652506895397675
1398,14.103744983673096,-0.7068448530721,0.10438466942864819,-0.2665174312399724,0.762599073354407
1399,14.11395025253296,-0.8270457796388991,0.12282039475934178,-0.28146627228133614,0.8822203995710518
1400,14.125216007232666,-0.9515379896261487,0.14813606474586827,-0.28948482748534476,1.0055696419067077
1401,14.134011268615724,-1.07255504551891,0.1827615010727804,-0.28967424017049975,1.125916185761979
1402,14.144184112548828,-1.1821204358600337,0.22908382721841689,-0.28166592864902973,1.2366178957675946
1403,14.15417504310608,-1.273226529674629,0.28933285548146925,-0.26537583582852037,1.3323826895340714
1404,14.164276123046877,-1.340994831472759,0.3655570292766713,-0.24065005406806148,1.4106067943311487
1405,14.175704002380373,-1.38359147211008,0.45972214651529936,-0.20695478216402546,1.4725827975203742
1406,14.18446922302246,-1.4027049884550205,0.5738979043566909,-0.1632900473540913,1.5243371440814864
1407,14.19455099105835,-1.4035016961420634,0.7104152086031015,-0.10845207651379647,1.5767906115234172
1408,14.204576015472412,-1.39410896178555,0.8718740788358689,-0.04164366381697719,1.6448216928934214
1409,14.214739084243774,-1.3847772140519525,1.0609898237284583,0.03672809132607985,1.7448943496112563
1410,14.226112127304075,-1.3869079363226633,1.280386886982759,0.12433643843616458,1.8916563520140701
1411,14.235105037689207,-1.4121075444618512,1.53247188364512,0.21655440842511073,2.0950927433164503
1412,14.244939088821411,-1.471355374684268,1.8194243116913857,0.3065389388346936,2.359906266275815
1413,14.255084037780762,-1.5742899410710678,2.143213801366025,0.385777100511225,2.687113356038818
1414,14.265157222747805,-1.728555546030697,2.505477328774745,0.44501628384153585,3.076257533692822
1415,14.27646803855896,-1.9391364160132325,2.907091868691899,0.475457603407083,3.5266830174486636
1416,14.285239219665527,-2.207646264840822,3.347334760067091,0.47002058164532773,4.037235610388532
1417,14.29543113708496,-2.5316210181223298,3.822645153459495,0.42441065088745394,4.604546161051361
1418,14.311735153198242,-2.903945506827669,4.325191980590194,0.337741015311118,5.220560714043053
1419,14.315608978271484,-3.312608451799587,4.841629804002231,0.21260947169690883,5.870260360613656
1420,14.326967239379885,-3.7410146400633737,5.352461343810258,0.05472410708391884,6.530469179319947
1421,14.335647106170654,-4.169056926180954,5.832306855443244,-0.12770106484631308,7.170296121622211
1422,14.345734119415283,-4.575031895611269,6.251196220518794,-0.3245570203992676,7.75330305694156
1423,14.356149196624756,-4.938292250779685,6.576828980015995,-0.5243374989518741,8.241137033158472
1424,14.365945100784302,-5.242317742200854,6.7775997497404115,-0.7145469323847282,8.598158581722924
1425,14.377438068389893,-5.477701031093544,6.826043688383881,-0.8821530523493116,8.796492200277216
1426,14.386075019836426,-5.644436470408704,6.702216505332065,-1.0142262777639497,8.820885675221755
1427,14.3962140083313,-5.752906453405252,6.396427779420609,-1.0987995947398288,8.672807016668585
1428,14.412440061569214,-5.823092150994631,5.910809257567804,-1.1258759405594223,8.373390287801895
1429,14.4164080619812,-5.881827725433585,5.259517784507114,-1.088497693169,7.965127239740748
1430,14.427647113800049,-5.958380410295982,4.467821566329059,-0.9837819010027914,7.5120938153816095
1431,14.436501026153564,-6.0791330963585875,3.5705242409444415,-0.8137212611871882,7.0969461636201165
1432,14.44663405418396,-6.262452684772089,2.609900899651186,-0.5854535735724034,6.80974685445927
1433,14.4566011428833,-6.514810799691771,1.6328770168384596,-0.31078871863240676,6.723513719442311
1434,14.46696424484253,-6.828864613804507,0.6872104665750086,-0.005099607546367591,6.86335749797712
1435,14.478418111801147,-7.183674121339846,-0.18290208791663568,0.31406068649943175,7.192861820595232
1436,14.48693323135376,-7.546898169756787,-0.9407209575793154,0.6284420802320678,7.631223188513994
1437,14.498140096664429,-7.878822289790072,-1.559465435759917,0.9208035652277063,8.084284280328024
1438,14.512071132659912,-8.137989007546427,-2.0234277932212543,1.1767154728995035,8.467926807990715
1439,14.517107009887695,-8.287611288925575,-2.3282304440564694,1.38589078623536,8.71928042606327
1440,14.528377056121826,-8.30127130904805,-2.480383652943142,1.5425904484189359,8.800170095160958
1441,14.53728413581848,-8.166407041384787,-2.495822818024376,1.645133758760139,8.696309595958645
1442,14.54737901687622,-7.884863171646201,-2.397270501709532,1.6948920318712763,8.413716901206625
1443,14.557566165924072,-7.470782564145758,-2.210830671846652,1.695237627357299,7.973342774114895
1444,14.5675311088562,-6.946816433824516,-1.9625804430637503,1.6507813787607297,7.405069866058918
1445,14.578855037689207,-6.339848639121894,-1.675842468856907,1.566953314903695,6.74221561791729
1446,14.587700128555298,-5.6772564958547775,-1.369467869119648,1.4497790460305502,6.017353475290082
1447,14.598931074142456,-4.98435743219487,-1.0571230765436244,1.305683891444682,5.259861085163317
1448,14.611752033233644,-4.283250615026791,-0.7473991387427916,1.1412458465720985,4.495251203886043
1449,14.617923259735107,-3.5928383076270642,-0.44451124813819626,0.9629079078660596,3.746100504992475
1450,14.62920093536377,-2.92950135939933,-0.14933529744203233,0.7766961706301165,3.0343922269963897
1451,14.638020992279053,-2.307804865215728,0.13949192052222414,0.5879765645274528,2.385610557538231
1452,14.64833402633667,-1.7407501166245223,0.42464913039494406,0.40126195138849846,1.8361778252951362
1453,14.65834617614746,-1.2393747037689022,0.7095093572486204,0.2200755478022791,1.4449520514903176
1454,14.66840410232544,-0.811769449527873,0.9978137511231973,0.046861309976019935,1.2871666183870683
1455,14.679708003997805,-0.46173218251181825,1.2935423891031206,-0.11710010617164097,1.3784632587193413
1456,14.68911600112915,-0.18735298831002747,1.6008172308270108,-0.27180595457711987,1.6345015832616792
1457,14.69990611076355,0.02011420606360844,1.9236145033969052,-0.4186359380961527,1.9687441143099673
1458,14.71254825592041,0.17672838035129426,2.265082572291405,-0.5603293000224279,2.340042927850569
1459,14.718765258789062,0.3054376425713331,2.6264220162449865,-0.7007395466665984,2.7354013733231954
1460,14.730100154876707,0.4347325648084206,3.005524394277462,-0.8443788879672371,3.1520065028401514
1461,14.739302158355711,0.5965668376745455,3.3957325582443803,-0.9958503958972765,3.588677975235824
1462,14.74894094467163,0.8238219781046138,3.7850904852726375,-1.1592658512406517,4.043450252836352
1463,14.759133100509644,1.1475482798469616,4.15633543292659,-1.3376869588722904,4.514576135753808
1464,14.769110202789308,1.5941228619681793,4.4877462263136145,-1.5325750108533494,5.002987113188865
1465,14.78088092803955,2.18242096438923,4.754860471579622,-1.743238719585046,5.514575287676878
1466,14.789534091949465,2.9211531546450016,4.9329951455772445,-1.9663396166698193,6.060863663477864
1467,14.800540924072266,3.8066948261506837,5.000375226729305,-2.1956178335271708,6.6569824679379375
1468,14.812405109405518,4.821936091208636,4.941497462851395,-2.4220557830448217,7.316817549949435
1469,14.819602966308594,5.936642410042839,4.75025735513312,-2.6345862993578097,8.046720637221068
1470,14.830952167510986,7.10934975726696,4.432323549975577,-2.8211714194217685,8.84009921893313
1471,14.839649200439451,8.290200078736628,4.006113144708401,-2.9698475769591997,9.67452089273989
1472,14.849891185760498,9.42389433206569,3.5017369964275473,-3.0693825946638693,10.511567717829474
1473,14.859968185424805,10.452271610767333,2.957798903204777,-3.1094776207074664,11.299000276605568
1474,14.870031118392944,11.31657167253825,2.416668263456582,-3.080728996895743,11.974805679743103
1475,14.881409168243408,11.959801607468393,1.9192107483155014,-2.9746622406243155,12.472723833720098
1476,14.890129089355469,12.329674302095498,1.499843949481973,-2.784075490320869,12.728765714096443
1477,14.900290966033936,12.38238982693443,1.1824826783496591,-2.5038020890566455,12.6882176846053
1478,14.912130117416382,12.08721321420874,0.9777053684618818,-2.131882442841124,12.312658276073277
1479,14.920441150665283,11.431494133477573,0.8813939172720476,-1.671022943680722,11.586553889722506
1480,14.931917190551758,10.425555242793326,0.875111867368003,-1.1301590874259615,10.523083315446819
1481,14.94054126739502,9.106669687270434,0.928429956240583,-0.5259350204187798,9.168970641375072
1482,14.950665950775146,7.541047440343222,1.0032051758646996,0.11617814103949414,7.608371342333665
1483,14.960864067077637,5.822523580269765,1.0595901023598082,0.7616395844735384,5.966959601376009
1484,14.970864057540894,4.066839252337288,1.0634187803656034,1.3681698170096348,4.420625482322808
1485,14.982222080230711,2.401142216171823,0.9942804281006979,1.8893286048304547,3.213042186000245
1486,14.991029262542725,0.9496134948221354,0.8522856551555866,2.2806564009625943,2.613340821015114
1487,15.001122951507568,-0.18208961356308845,0.6597354649138153,2.5073825502444618,2.599110379399656
1488,15.011466979980469,-0.9197519780686902,0.45483161400928185,2.550754420333473,2.749393316918172
1489,15.02128791809082,-1.2282350741857746,0.2796601615713449,2.410256923025168,2.719578945061348
1490,15.032494068145752,-1.11367489654844,0.16873254062161192,2.1022810574346034,2.3850216120436216
1491,15.041769981384276,-0.6211535884732831,0.14244716588518075,1.6579119758020107,1.776174286225787
1492,15.05148220062256,0.17163647978854077,0.20531051162518027,1.120853977185979,1.1523563361875624
1493,15.06172800064087,1.1641077913742726,0.3470291124037872,0.5444133798968477,1.3311506612719526
1494,15.072408199310305,2.2444206614859135,0.5454163344549909,-0.013546166040605443,2.3097806350841164
1495,15.083271026611328,3.301191799043531,0.7707155339181481,-0.49803985790300986,3.426355706629866
1496,15.09189224243164,4.233853999369287,0.9907183599723424,-0.8661854874988526,4.433657615954937
1497,15.101931095123293,4.961066264500414,1.1757957436232465,-1.0955830259362003,5.214880274580247
1498,15.111998081207275,5.426936088397473,1.303101405390445,-1.1878000527633477,5.706187654259718
1499,15.122481107711792,5.604521443939743,1.3593749701493436,-1.1646670291497014,5.883452236046226
1500,15.133376121520996,5.4958915208797166,1.3418244018506424,-1.0591044262111051,5.755607571777228
1501,15.142313957214355,5.128644127226869,1.256946812046069,-0.9050679560516992,5.3574297827524555
1502,15.152279138565063,4.549826509180831,1.117879367638577,-0.730844686037406,4.741804456042633
1503,15.162405967712402,3.8187441296950917,0.9413096762984526,-0.5569699449261575,3.9722897873046557
1504,15.172866106033323,2.9998803454459884,0.7447602468065655,-0.3970806866967561,3.1163476994655275
1505,15.183954238891602,2.1566119107658164,0.5445613007497894,-0.25943200783460424,2.239380921286145
1506,15.192735195159912,1.3460736153554678,0.3545079304735775,-0.14810271752917173,1.3998301560061936
1507,15.202714920043944,0.6153789072274398,0.1851226489763119,-0.06397422518718601,0.6457974110452485
1508,15.212866067886353,-0.0007399126572791605,0.04343620024572606,-0.00563663089897703,0.04380664984244421
1509,15.222873210906982,-0.48094108919196266,-0.06683209861252866,0.029833579018314155,0.4864780602608386
1510,15.234174251556396,-0.8170558455861316,-0.14483468238499156,0.04626263276355279,0.8310821687524317
1511,15.24305009841919,-1.012797838925397,-0.19202576963046433,0.04786096272321976,1.0319515640217425
1512,15.253209114074709,-1.0816316238951154,-0.2115662330221102,0.038733268198213676,1.1028089167351092
1513,15.263354063034058,-1.0441268078955719,-0.20777852740429736,0.022467630921369885,1.064836842833546
1514,15.273333072662354,-0.9251622788284364,-0.18568649096512807,0.0019248340015828441,0.9436145505872097
1515,15.28520393371582,-0.7512955879027039,-0.15063548165881094,-0.020708725154784273,0.7665278599204258
1516,15.295042037963867,-0.5485112712266812,-0.10796528862364813,-0.04367845622028552,0.560739623843442
1517,15.303575038909912,-0.34046167744060246,-0.06270264769740193,-0.06540214300045967,0.35231124895890836
1518,15.313694953918455,-0.14722916957788412,-0.01925567013452345,-0.08435816918240428,0.17077327049257468
1519,15.323795080184937,0.015434307060426079,0.018858610200696815,-0.0991776460206204,0.10212771652851554
1520,15.335040092468262,0.1364824888058185,0.04917587843332742,-0.10885690661514026,0.1813713397649616
1521,15.34390926361084,0.20966505831999221,0.07029075253840962,-0.11293960752202312,0.24830541983607668
1522,15.353920936584473,0.23339197198547795,0.08175952396710871,-0.11156018204875186,0.2712970817486782
1523,15.364158153533936,0.2103596225131053,0.08399227533881962,-0.1053367753084403,0.2498033413163825
1524,15.374222040176392,0.14689325959870775,0.0781694013280897,-0.09519143190689644,0.1917015746623136
1525,15.385781049728394,0.05201103691220434,0.06614831871403395,-0.08221165947366206,0.11764142545374681
1526,15.395786046981812,-0.06369909610897577,0.050320875000846116,-0.0676214751026325,0.10565239798985755
1527,15.404365062713625,-0.18925503875647096,0.03342089962923077,-0.05284129484369581,0.19931539997576414
1528,15.414489269256592,-0.3143838236749101,0.018308784314142863,-0.0395525054789364,0.31739061243392197
1529,15.424711227416992,-0.4304561113900821,0.007753546614459028,-0.029664189078971122,0.4315466897473393
1530,15.4360990524292,-0.5311782307310385,0.004212583301304333,-0.025105821308035722,0.5317878909153327
1531,15.444796085357666,-0.612980393129544,0.009608688785233488,-0.02744639600639191,0.6136697759505201
1532,15.454790115356444,-0.6750554769891987,0.02512990846141963,-0.03744519515692,0.6765600874665411
1533,15.464937210083008,-0.7190427831956447,0.051100742724016254,-0.05472471692859049,0.7229305669395918
1534,15.475003242492676,-0.7484133211561639,0.08696875871235613,-0.07776328571688863,0.7574517759444847
1535,15.486599922180176,-0.7676700363822738,0.131434216551874,-0.10428093567227728,0.7857905265301002
1536,15.49657106399536,-0.7815109324985324,0.18273387376202183,-0.13187329343657672,0.8133520589244301
1537,15.512182235717772,-0.794121725522712,0.2390444994423353,-0.1585818790073608,0.8443457822541138
1538,15.515317916870115,-0.8087554116556976,0.2989067388349441,-0.1831003876611671,0.8814512501352461
1539,15.525573253631592,-0.827680548538685,0.3615698860390089,-0.2044919941140791,0.9260695700520091
1540,15.536755084991457,-0.8524422496722154,0.4272407992644918,-0.22154307397722278,0.9789146148718317
1541,15.545615196228027,-0.8842483276279797,0.49728697196032534,-0.23212616041967085,1.0407074477227147
1542,15.556073188781738,-0.924252315444901,0.5744261661701533,-0.23304735536132923,1.1128876101507785
1543,15.565791130065918,-0.9736172752307742,0.6628704174230763,-0.22062931383507223,1.1983342951972022
1544,15.575754165649414,-1.0334701363761678,0.768351085669511,-0.1918140178919629,1.3020048122379384
1545,15.587437152862549,-1.1050030211968953,0.8979619550135399,-0.14525658668600977,1.4312465984175038
1546,15.59721612930298,-1.1898757065153474,1.0597950238978158,-0.08197760157538801,1.595521863464748
1547,15.612168073654177,-1.290806074584867,1.2623735147505712,-0.005465479670412649,1.805490815373186
1548,15.616018056869509,-1.412047742088787,1.513898942523807,0.07864938281606897,2.0717032991068223
1549,15.626232147216797,-1.559461367909295,1.821336038413789,0.1631699377725064,2.4032913163865612
1550,15.637556076049805,-1.7400164809152434,2.1893738535448772,0.2399947374620242,2.806886655790019
1551,15.64636206626892,-1.9607185361861927,2.6193214437377295,0.30074170251194543,3.2856822085220316
1552,15.656399250030518,-2.227106846726804,3.1080100863730262,0.337274805573905,3.8384223188972824
1553,15.666551113128662,-2.5415976591302814,3.646782604206668,0.3421745694384267,4.458231202978516
1554,15.676599025726318,-2.902025370918691,4.220679075919115,0.3092829789173712,5.1314266122010554
1555,15.688391208648682,-3.3007400398106967,4.807995436831547,0.2344421280368887,5.8366658326823
1556,15.696763038635254,-3.724543644425986,5.380467836743387,0.11639987408900457,6.544861223292058
1557,15.712542057037354,-4.155603849220344,5.904355539860411,-0.04231315399990783,7.220266483706587
1558,15.716938972473145,-4.573312835827001,6.342606823727975,-0.2347800298140081,7.82297726426072
1559,15.726989269256592,-4.956908864970863,6.658066432755871,-0.44954865021803475,8.312814692240533
1560,15.738423109054564,-5.288565681948046,6.817335276120124,-0.6710494885664339,8.654206760611611
1561,15.747250080108644,-5.556549327096071,6.79457452469666,-0.8806373352226109,8.821394760030675
1562,15.757233142852783,-5.757901232281783,6.574499391377895,-1.0582140921042196,8.803254279677962
1563,15.7673020362854,-5.899961607282648,6.154105561836825,-1.184254086342888,8.607265534108961
1564,15.777446269989014,-6.000061046966186,5.5430962351043265,-1.2419669008996346,8.26251355350652
1565,15.789274215698242,-6.0830542944356765,4.763267977346252,-1.2193202553354068,7.821701429876736
1566,15.797569036483765,-6.176989220262111,3.847203212482638,-1.1106628548216966,7.361368103990706
1567,15.81204319000244,-6.3077830154708945,2.8365243932270032,-0.9177194977814566,6.97683354253512
1568,15.817614078521729,-6.494028860468769,1.7796897091200947,-0.6497630274756571,6.764754119199278
1569,15.827761173248293,-6.742934296612736,0.7290302846958983,-0.32280148754682425,6.789907870126259
1570,15.839303016662598,-7.0480468216034895,-0.26320608066129475,0.042217671989752535,7.05308611688815
1571,15.848026037216188,-7.389060151887156,-1.1494996861099942,0.4218878558139381,7.489829692286527
1572,15.858066082000732,-7.733765527300365,-1.8914338269407436,0.7930575059994763,8.001099384508187
1573,15.868076086044312,-8.042082164369571,-2.462728154419441,1.1353592408252535,8.486999240412871
1574,15.87822198867798,-8.271816988344069,-2.8504839837421065,1.433115846171265,8.865778942584514
1575,15.890107154846191,-8.385208773352996,-3.054874197949238,1.6762317771923312,9.08040392872924
1576,15.89842700958252,-8.354748865039378,-3.08761904852262,1.8599858001241103,9.099162992459242
1577,15.911842107772827,-8.166823936009246,-2.9694462300522586,1.9839803450659026,8.913517943245132
1578,15.91849422454834,-7.822505123853355,-2.726858424129052,2.0506779088939964,8.534203135851724
1579,15.928673267364502,-7.335809644153626,-2.388798750822587,2.0640006818601875,7.986273312497402
1580,15.940378189086914,-6.730402477361753,-1.9838258341706014,2.028351385841097,7.3039778061028775
1581,15.948713064193726,-6.035787872499279,-1.5381244660371651,1.948147282286801,6.526242406493413
1582,15.959065914154053,-5.283760121695736,-1.0743277329375496,1.827740244370651,5.693235942965385
1583,15.96914005279541,-4.5055342733955,-0.61093771841031,1.6715427633331645,4.844289338403454
1584,15.979113101959229,-3.729704329214315,-0.16213157905532416,1.4842292938392692,4.017451633682426
1585,15.991060256958008,-2.9809833657215363,0.26218098802213086,1.270939344958329,3.251197858597945
1586,15.999239921569824,-2.279556366219904,0.6561193845696199,1.0374408013632634,2.589044860545093
1587,16.012339115142822,-1.6408357304823635,1.0174558762328176,0.7902151232802456,2.0861443611526735
1588,16.01921510696411,-1.0754478300644328,1.347133990883448,0.5364040790600747,1.8052942587335037
1589,16.029550075531006,-0.5893606002088119,1.6487026936394185,0.2835544949724262,1.773688146408898
1590,16.04080605506897,-0.184140699178373,1.9276645079106616,0.03916255821161603,1.9368355526781387
1591,16.04958724975586,0.14263806314210484,2.1907049351322008,-0.18988330107699175,2.203540196569467
1592,16.059723138809204,0.3968493847832549,2.444764895547064,-0.3978253319675005,2.5085114756478886
1593,16.069766998291016,0.5872287369491516,2.6959696610034007,-0.5804373651035075,2.819573999269746
1594,16.079841136932373,0.7249020794247584,2.9485133375618804,-0.7352795006417492,3.1240758426450883
1595,16.092210054397583,0.8231589979283745,3.2036558216395106,-0.8618068736807484,3.4181445912831947
1596,16.099939107894897,0.8974973465201256,3.4589909833902936,-0.9613329922364345,3.7005784996603266
1597,16.11272406578064,0.9658408807702299,3.708110860406765,-1.0368529094085395,3.9696345821476524
1598,16.120142936706543,1.0487381556041167,3.940749049455636,-1.0927399430046139,4.221781066427195
1599,16.130321979522705,1.1693163174738455,4.143444902596236,-1.1343375666920308,4.452208219116681
1600,16.141525268554688,1.3527803021360971,4.3007163541128755,-1.167477071322358,4.657164203294189
1601,16.150452136993408,1.6252904107779684,4.396653239977589,-1.1979503190955039,4.838100205555199
1602,16.160542011260986,2.012105129508238,4.4167635931487865,-1.2309531531170799,5.007156214372268
1603,16.170653104782104,2.534952016972392,4.349861911730767,-1.2705154422253562,5.192445461284262
1604,16.180981159210205,3.2087082993186566,4.189786868345899,-1.3189651651343772,5.439649994174085
1605,16.193428993225098,4.037667263788115,3.936716571295238,-1.3765177661610273,5.804764892425332
1606,16.20085906982422,5.011955310559216,3.5977880406451916,-1.4411066354862168,6.3356580680537595
1607,16.213568210601807,6.104944287995635,3.186789174137918,-1.508534894272013,7.049939540674759
1608,16.220980167388916,7.2725604868947515,2.723050004974388,-1.572906903220155,7.923330959346041
1609,16.23117208480835,8.455090459355295,2.2300645743069625,-1.6271695925631764,8.894347843682642
1610,16.242544174194336,9.58145978423517,1.7343071802194852,-1.663599891811283,9.878246686143815
1611,16.251369953155518,10.575255805237543,1.2641442469315827,-1.6742164284646797,10.781330932338623
1612,16.261369228363037,11.361416332594354,0.8482938167247006,-1.6512163238708042,11.512076217183958
1613,16.271472930908203,11.872738634639804,0.5134046116423849,-1.5875179703904116,11.989400330626914
1614,16.281615257263184,12.055829026871905,0.28082521399316923,-1.4773537709320408,12.149257199124092
1615,16.294148921966553,11.876319091855738,0.16307935761995718,-1.3167721084590152,11.950206643990489
1616,16.30162000656128,11.323097437293786,0.16079496436312243,-1.1040084873390452,11.377927110644112
1617,16.31518006324768,10.411206359610262,0.26090054206676083,-0.8398561513535244,10.448284323763698
1618,16.32164192199707,9.18298748636505,0.4368000052882538,-0.528196449762222,9.20853109398553
1619,16.332077026367188,7.707044476307987,0.6509445486885429,-0.17672680029505244,7.736504102448296
1620,16.343308925628662,6.074782965273912,0.8598249528150703,0.20223531707946482,6.1386632215931005
1621,16.352100133895874,4.394601408335397,1.0210393134905393,0.5911589700375353,4.550221065584894
1622,16.36213207244873,2.783882589830029,1.101713363073965,0.9674463939601115,3.1463831828817224
1623,16.372729063034058,1.3588028866361628,1.0868050012899986,1.3050234387804986,2.1749888669430475
1624,16.382434129714966,0.22236137057323407,0.9844476931626724,1.5775210584009225,1.87273984562589
1625,16.39480710029602,-0.547681686542912,0.8247115841471939,1.7619326787953473,2.0210173654394983
1626,16.402596950531006,-0.9083705612084979,0.6505851172577682,1.8414141780374722,2.1538812052536613
1627,16.415500164031982,-0.856884179423247,0.505032879762429,1.8073507031849807,2.062965164730182
1628,16.422818183898926,-0.43124056630358454,0.4202153997534457,1.6615001425103015,1.7672385610826673
1629,16.432773113250732,0.2937985247184654,0.41192190371207055,1.4176596101134178,1.505242836897572
1630,16.443990230560303,1.215695411005913,0.4786360688340247,1.1012508013415254,1.7087308583229475
1631,16.452895164489746,2.2168969250634065,0.6039696254051878,0.7460875146864107,2.415793423357762
1632,16.46296215057373,3.179171949082594,0.7615591820343132,0.3889578309649411,3.2921717549124536
1633,16.472999095916748,3.9972717619874345,0.921195598202629,0.06338391052155147,4.10253584864813
1634,16.483238220214844,4.5902298321997606,1.0547559672746023,-0.20562183745056983,4.714339869266382
1635,16.496536254882812,4.909011141155173,1.140898155412805,-0.40409139620734247,5.056019070523642
1636,16.50320291519165,4.939465093275503,1.1678579187507476,-0.5285926574557256,5.103098835373671
1637,16.513278007507324,4.7001782142652475,1.1339333703589867,-0.5840067045210003,4.870168782002613
1638,16.52326202392578,4.23598986089143,1.045816937447813,-0.5811355678601361,4.401711225927917
1639,16.533594131469727,3.608944435270649,0.9157184181015808,-0.5346259412926583,3.761495055855385
1640,16.54492211341858,2.8886287614935364,0.7584534143264448,-0.4609155497010794,3.0218985501481304
1641,16.553736209869385,2.1433448245351046,0.5891475658703107,-0.37604027349712654,2.254424134568321
1642,16.56377124786377,1.4329994342887407,0.42158827268359617,-0.293617221539253,1.5223124262517929
1643,16.573849201202393,0.8042062374871709,0.267075850367072,-0.22346641992913185,0.876364320986717
1644,16.58389902114868,0.28778412401062425,0.1337348490119108,-0.17104516228914013,0.3605012613227854
1645,16.597424030303955,-0.1014691274894479,0.026301327413005317,-0.1375802467770234,0.172962620124646
1646,16.60409712791443,-0.3631047246150229,-0.05365498349148119,-0.12077234390618544,0.38640633709065475
1647,16.614110946655273,-0.5080161559567252,-0.10718324569656754,-0.11598160329442998,0.5319966119947054
1648,16.624304056167603,-0.5547707924984684,-0.13722473411608008,-0.11768410042010184,0.5834816255498506
1649,16.6344211101532,-0.5259359326820616,-0.14785303273850228,-0.12086017542512845,0.5595322212168978
1650,16.645552158355713,-0.44490779304767597,-0.14359388795951614,-0.12199317327766619,0.4831609289876805
1651,16.65446901321411,-0.3335405038424419,-0.12889228510560283,-0.11949309560650791,0.3770160324984072
1652,16.664642095565796,-0.2106628680962277,-0.10775739028780605,-0.11353552747535241,0.26245154820513766
1653,16.67471218109131,-0.09139646014537,-0.08358135595442356,-0.10546114082367278,0.1626690143024012
1654,16.68472719192505,0.012932557101704246,-0.059088409740123374,-0.09697306274617234,0.11429114618892676
1655,16.696299076080322,0.09454915076941339,-0.03634586503802294,-0.08939453212413433,0.13509976384240027
1656,16.704923152923584,0.1488889384288884,-0.016787383554114563,-0.0832104754355008,0.17138761756695364
1657,16.719237089157104,0.17429932158978906,-0.0012486786746997327,-0.07800263448415243,0.19096131464661015
1658,16.72514295578003,0.17178524407412965,0.009957602662077944,-0.07272579543330947,0.18681104157354217
1659,16.735191106796265,0.144698785230946,0.016925463160815668,-0.06614921899983751,0.15999977788987094
1660,16.746535062789917,0.09825704411790905,0.020032618724439576,-0.057270707055754086,0.11548024254569911
1661,16.75571298599243,0.03884291645460725,0.019846249719997718,-0.04557872247357597,0.0630877621173185
1662,16.76544713973999,-0.026859006539659,0.017060012222479663,-0.031124582433542963,0.04451055920779935
1663,16.775535106658936,-0.09276412036487058,0.012443765424431198,-0.014437846356977806,0.09470206297876602
1664,16.785576105117798,-0.15416845651753697,0.006795924012694961,0.003636119846701402,0.15436100199119462
1665,16.797043085098267,-0.20826846689734835,0.0009044037385366467,0.022084393938004074,0.20943804025415994
1666,16.812458038330078,-0.2543417752068667,-0.0044741720093277116,0.03978998351291416,0.2574742698183788
1667,16.818920135498047,-0.2935950121825267,-0.008616118878612031,0.05549805920002557,0.2989185562288797
1668,16.82594108581543,-0.32876123259398066,-0.010823780317943052,0.06774644909562584,0.3358432426626309
1669,16.835992097854614,-0.3635662869607784,-0.010421888871562488,0.07485261978900641,0.3713380878274889
1670,16.84721612930298,-0.40217507856874424,-0.006756750936369808,0.0750154741969181,0.40916716495092836
1671,16.856303215026855,-0.4486954194051548,0.0008132869345944871,0.06654466407335813,0.45360382840915464
1672,16.866291046142578,-0.5067753434893526,0.01294378149701406,0.04820527896969523,0.5092273943620276
1673,16.87635326385498,-0.5792854051457881,0.03034853007029911,0.01962823864270508,0.5804118207312483
1674,16.887465953826904,-0.6680415803746772,0.05387440152910999,-0.018325322979493408,0.670460902448397
1675,16.898279190063477,-0.773523489361645,0.08461173653321352,-0.06337855705571317,0.7807141449005808
1676,16.906389236450195,-0.894602375637048,0.12398547326936686,-0.11188777720503157,0.9100575161851924
1677,16.916640043258667,-1.0283738781699743,0.1737298981703161,-0.15906367975112673,1.0550052914732657
1678,16.92672824859619,-1.1701952818021089,0.23571679521088956,-0.19927446939350268,1.210218872455917
1679,16.936800003051758,-1.3139378242450874,0.31172383615650767,-0.22643402138792687,1.3692613782809882
1680,16.948086261749268,-1.4523888865080656,0.4032650936467785,-0.2345706443663834,1.5254768436802126
1681,16.956874132156372,-1.5777631361321551,0.5115427252879278,-0.2186277207550728,1.6729646002875052
1682,16.966975212097168,-1.6823582917292572,0.6375142490077502,-0.1753827394715535,1.807626328847488
1683,16.97714900970459,-1.7594136822041624,0.7820688922965616,-0.1042381230682435,1.9282203825615918
1684,16.988265991210938,-1.8041655157322165,0.9463282940891263,-0.007646808671480786,2.0373043272996276
1685,16.99885320663452,-1.8149958089530016,1.1320481713069124,0.1089567273746858,2.1418717088370363
1686,17.00744915008545,-1.7944957486526503,1.341989136433247,0.23773446686535993,2.25336803717747
1687,17.01747703552246,-1.7502125191199156,1.5800364673619447,0.3694287514228149,2.386679011232033
1688,17.027481079101562,-1.6948162231231583,1.8508792356588182,0.49451273904642856,2.557869977976523
1689,17.03757095336914,-1.645443190884908,2.1592091515549185,0.6041730796186336,2.7811315259663436
1690,17.048938035964966,-1.6220921670841173,2.5085540581034365,0.6908459108035183,3.066153051205502
1691,17.057857036590576,-1.6451773753874928,2.8999149118257246,0.7482850011438476,3.4170229052865486
1692,17.067845106124878,-1.7326053465541402,3.3303638939126854,0.7714450268291619,3.832541243379476
1693,17.078004121780396,-1.8969108308600946,3.791790077773412,0.7565224804499415,4.306770130569005
1694,17.095489025115967,-2.14297594293045,4.270055835310931,0.7012606815199472,4.828818620749531
1695,17.09962224960327,-2.46671835263663,4.744868805242262,0.6053738647611319,5.3819101559141
1696,17.108223915100098,-2.8549937497210887,5.190622023077126,0.4709044100945867,5.942667520638042
1697,17.118282079696655,-3.2868583067270345,5.578307429725071,0.30245265494691126,6.4816995392806405
1698,17.12841796875,-3.7362186674875146,5.878386126876148,0.10736144164169134,6.966080667569355
1699,17.138416051864624,-4.17570222241839,6.064210147489412,-0.10403745833987273,7.363556040118202
1700,17.149786949157715,-4.581295917053261,6.115291433986065,-0.3182014814124256,7.647634522188236
1701,17.15866994857788,-4.936949607934442,6.0196365230613145,-0.5185752172447435,7.8024621471044755
1702,17.16865110397339,-5.238055805290068,5.774705192623482,-0.6866473682890184,7.826616976026348
1703,17.178925037384033,-5.492763418975877,5.387045560813541,-0.8038761088070155,7.735433190806521
1704,17.196657180786133,-5.720575296939466,4.870910815441336,-0.8540098601361521,7.5617515656855065
1705,17.20104694366455,-5.94838181743962,4.246321252401368,-0.8253315404942513,7.354975362050944
1706,17.209084033966064,-6.204667439472602,3.5373079095465902,-0.7126268996459113,7.177623727912414
1707,17.219088077545166,-6.513006483344428,2.7709515265790987,-0.5186385606419157,7.096929742594492
1708,17.229082107543945,-6.886165494329965,1.976982059801364,-0.2544682708071804,7.168855374529792
1709,17.239681243896484,-7.322044363195981,1.187019326083404,0.06159337667299647,7.4178933856692435
1710,17.25065803527832,-7.802270428978677,0.4329014818406453,0.4067353402001443,7.824848955530238
1711,17.25945520401001,-8.293729473778273,-0.25555872512015676,0.7569338837056848,8.332119043226951
1712,17.26943302154541,-8.752837428268837,-0.8526319695730064,1.0897961055739978,8.861534848600778
1713,17.2796950340271,-9.131865706373773,-1.338063258827226,1.3864032967827793,9.33292551482111
1714,17.29596209526062,-9.38616724794659,-1.6978695104701271,1.6323424590008677,9.677160657159016
1715,17.30094003677368,-9.480897788702995,-1.9248838363433804,1.8182478264191375,9.843709962281867
1716,17.309885025024414,-9.395908283056398,-2.0191299312282642,1.9398667179800353,9.804236891585001
1717,17.31986713409424,-9.127911206692035,-1.9877265951657335,1.9975202930232396,9.553005146833264
1718,17.330076217651367,-8.689700544384385,-1.8439916479843967,1.995019788031081,9.104466195420029
1719,17.34008812904358,-8.106925314560742,-1.6057290187023479,1.9383534252019428,8.488687633454344
1720,17.351442098617554,-7.413442800393074,-1.2930399775595582,1.8345212396182828,7.745744297152968
1721,17.36033010482788,-6.646439251545918,-0.9261687145050824,1.6907482019630484,6.920373739521555
1722,17.370485067367554,-5.842281955536991,-0.5238190758106687,1.5141024722025174,6.057982433822835
1723,17.38046908378601,-5.033609141123387,-0.10214530440475436,1.3114104417952297,5.202638945349026
1724,17.396544933319092,-4.247694692964673,0.3256349019871882,1.0893115971633918,4.397220491372603
1725,17.401612043380737,-3.505809536850622,0.7492152831279242,0.8543061229067159,3.6853579203085736
1726,17.41059923171997,-2.823194925485883,1.160998955269754,0.6126949536589037,3.1134776806114712
1727,17.420717239379883,-2.2093134617228687,1.5558848506566174,0.3703812853890724,2.7274577791817625
1728,17.430857181549072,-1.6681591225603207,1.9311034654918522,0.1325714288705402,2.555286801196421
1729,17.441067218780518,-1.1985260498510706,2.286058303917791,-0.09654958879578493,2.5829922733488253
1730,17.452669143676758,-0.7942387365059824,2.622047482655507,-0.3140883018167809,2.757643855396278
1731,17.46125316619873,-0.4444238187306826,2.9417131898216042,-0.5185846433731487,3.0199534854311936
1732,17.471155166625977,-0.13393856190309217,3.2481233769972095,-0.7099709839532623,3.3275071462907464
1733,17.4813551902771,0.15594562933271502,3.5435208741209543,-0.8893449273957579,3.6567463166759975
1734,17.496068000793457,0.44656263458948936,3.827927956245296,-1.0586051463851904,3.996635520130527
1735,17.502565145492554,0.7606010999768467,4.0979031640360954,-1.2200233015224466,4.3427849625972454
1736,17.511762142181396,1.1206616733270636,4.3457673931938094,-1.3758260177642756,4.694089267682053
1737,17.521599054336548,1.5477099418394544,4.559545323852548,-1.527844485986768,5.0516500668291044
1738,17.531763076782227,2.0594905023045675,4.723740889372083,-1.6772560548922144,5.4192635101719375
1739,17.54184603691101,2.668945437373075,4.820926701133239,-1.8244071759395235,5.804572813652491
1740,17.553232192993164,3.382689195788366,4.833998201677302,-1.9686853956227075,6.219794771217203
1741,17.562058925628662,4.199647963791855,4.748815322771363,-2.1084168329163395,6.6808466178242805
1742,17.57252597808838,5.110068533792493,4.5568453652715295,-2.240816405617872,7.2040889963089
1743,17.582056999206543,6.095154400965175,4.2573952278788125,-2.3620642573387722,7.801004349041718
1744,17.596434116363525,7.127458738614212,3.85907330072286,-2.467539642845893,8.472417996063236
1745,17.603496074676514,8.171885377475366,3.3801613215588833,-2.5521239159216607,9.204267361641431
1746,17.612367153167725,9.186983483513249,2.847639711352819,-2.610429148628533,9.966145583525673
1747,17.62271022796631,10.126342841762556,2.2948342359816505,-2.636905930195037,10.712719374848152
1748,17.63249707221985,10.940178945579568,1.7579845103145713,-2.625916319078057,11.38742558327425
1749,17.642672061920166,11.577426106540287,1.2722640886792467,-2.571874023400206,11.927698317612842
1750,17.653752088546753,11.988705688209812,0.8678258525617084,-2.469499572571615,12.271129284944402
1751,17.662723064422607,12.130366003564953,0.5663838971575937,-2.3142449680509025,12.362131688004004
1752,17.67293405532837,11.969497928521614,0.37874678563516123,-2.102983051936125,12.158736262673138
1753,17.684261083602905,11.489541309641579,0.3035833044914594,-1.8350059215358332,11.639113757533169
1754,17.69639825820923,10.695775156606215,0.3275347245777067,-1.513232076815305,10.807254809376046
1755,17.70422911643982,9.619616812203686,0.42669201689578756,-1.145401761255302,9.696960291019096
1756,17.7131290435791,8.320438108929368,0.5695112094277601,-0.7450024506731054,8.373115429378537
1757,17.723087072372437,6.883718462893293,0.721250082920679,-0.3316160105482989,6.929339848567326
1758,17.73327922821045,5.414808946497984,0.8497041736048856,0.06976569777701688,5.48151624665133
1759,17.74356508255005,4.028307667356294,0.9315629795259115,0.4308948940570015,4.157011265011089
1760,17.75471305847168,2.8340310375131943,0.9581118075585313,0.7238888446285022,3.0779417175685406
1761,17.76349115371704,1.9218584648348316,0.937802548583537,0.9256648871872698,2.3302079440166907
1762,17.77353000640869,1.3487396053928749,0.8929004822068751,1.0219270343196574,1.9132968033616655
1763,17.784836053848267,1.1307353142624743,0.8505797413256507,1.0093653382172163,1.7380640475161502
1764,17.796151161193848,1.2413941803518587,0.8330450396460926,0.8958297033759618,1.7428523765772839
1765,17.805088996887207,1.6165486576148396,0.8512548973118477,0.6993385666990867,1.9562563465728302
1766,17.813905239105225,2.164805182359224,0.9034209008804123,0.4462737064771766,2.3878255846710843
1767,17.824011087417603,2.781830251386058,0.9772047227793115,0.16822139639921344,2.9532705693781787
1768,17.834081172943115,3.365594301601506,1.0541892225820526,-0.10262261091156438,3.5283241518107418
1769,17.84423303604126,3.829865294085714,1.1151354507505367,-0.3384467148410198,4.003241364588143
1770,17.855873107910156,4.114032919958872,1.1445157669375743,-0.5197063765697706,4.301776136100216
1771,17.864535093307495,4.1881261733328,1.133281614240417,-0.6368484985359399,4.385237059842728
1772,17.874582052230835,4.052690477123883,1.0796191840877567,-0.6898203684491173,4.2503799626325405
1773,17.88575005531311,3.7341617618961136,0.9880856586333775,-0.6861115387269987,3.9231398619445588
1774,17.896367073059082,3.277213248096292,0.8677760116216389,-0.6381935927604697,3.4497033121247287
1775,17.90654993057251,2.735873616682401,0.730142229469052,-0.5608973595414333,2.8866447598645437
1776,17.914804935455322,2.165012756694061,0.5869376315350088,-0.4690624021049749,2.2916796366482886
1777,17.92479705810547,1.6133379668289642,0.4485848918509451,-0.3757553569074242,1.7161817761103764
1778,17.93489122390747,1.1185733304448515,0.32311467036715025,-0.29119121283463745,1.2001673667539317
1779,17.945123195648193,0.7050624535439096,0.21569715127921416,-0.22223845044882898,0.770083276876743
1780,17.9570369720459,0.38364561833296984,0.12868906068721292,-0.17231533314596806,0.4398151985139325
1781,17.965307235717773,0.15337441884629846,0.062058327196981275,-0.14162519742297988,0.21779036910760172
1782,17.975231170654297,0.004458412027644941,0.014022736146906804,-0.1277724801744602,0.1286169555571381
1783,17.986656188964844,-0.07824546138785156,-0.018258007581128846,-0.1266823204539935,0.15001372398630275
1784,17.995785236358643,-0.11186648254059006,-0.038054441924442545,-0.13358981154819155,0.17834934318821094
1785,18.00708293914795,-0.11277637901980708,-0.04856124610770979,-0.14388373063079737,0.1891539960682528
1786,18.015602111816406,-0.09473325804255957,-0.052539820638151595,-0.15371589467652483,0.18805158656137894
1787,18.025691032409668,-0.06798121348889381,-0.05213095556083608,-0.16035732613290973,0.18180636391393123
1788,18.035685062408447,-0.039218273785723665,-0.04883542005513257,-0.16229993974174006,0.1739662084741335
1789,18.04585218429565,-0.012204681519492548,-0.04361870022959442,-0.15913578873089312,0.1654561709810635
1790,18.057307243347168,0.011302380522731054,-0.037074168503335295,-0.15128161302363352,0.15616774383568047
1791,18.066116094589237,0.03058880669494119,-0.0295873388468465,-0.13963222203681555,0.1459734330143576
1792,18.0760440826416,0.04521259753522544,-0.021464529588150767,-0.12523322060001182,0.13486387414046097
1793,18.08617210388184,0.054528630863519986,-0.01300827198499873,-0.10905353089982114,0.12261834824203094
1794,18.096163034439087,0.05752365753690689,-0.004536566994257799,-0.09189515408411676,0.10850931278309847
1795,18.10759115219116,0.05291326259884162,0.0036425663445798866,-0.07441607979689241,0.09138290092115754
1796,18.11634922027588,0.039411579226390304,0.01127688059343373,-0.05720356557417777,0.07037534033619915
1797,18.126506090164185,0.016053357129419122,0.018209790009372763,-0.04084702233239972,0.047516165257033165
1798,18.136505126953125,-0.01755826731646057,0.024397340754942258,-0.025992042260373324,0.03973800759894847
1799,18.146667957305908,-0.06116508417642284,0.029894546173743416,-0.013360687933446127,0.0693783784424074
1800,18.157912254333496,-0.11394467045421064,0.0348156877880626,-0.0037117490994892357,0.11920275635425581
1801,18.166893005371094,-0.17472764765949073,0.03929854716985157,0.00225897818941791,0.17910675489422628
1802,18.17690205574036,-0.24224683878714726,0.04351956273745759,0.00402003079881505,0.24615776219906013
1803,18.187032222747803,-0.3153255759610299,0.04777619902844636,0.0012339139796360675,0.31892680444338645
1804,18.19701623916626,-0.39296271784125486,0.05258816473885195,-0.006291644990352536,0.3965158224843883
1805,18.20817804336548,-0.47432914916956115,0.058743056922163195,-0.018656693476145753,0.47831679951674616
1806,18.217143058776852,-0.5587101600168816,0.06725924595287851,-0.035850181435588234,0.5638848149943424
1807,18.22730302810669,-0.6454173572451294,0.07930760343928946,-0.05765616143667037,0.6528227124941212
1808,18.23731803894043,-0.7336879797367732,0.09616029944450728,-0.08353588819030909,0.7446630777843285
1809,18.247529983520508,-0.8225987088913236,0.11921135425109816,-0.11252036766779382,0.8387733996689146
1810,18.25883722305298,-0.9110288877157052,0.15006629896516518,-0.14311475184633124,0.9343315046243781
1811,18.26764917373657,-0.9977008466074253,0.190657320330122,-0.17322324016584387,1.0304190817576067
1812,18.277693033218384,-1.0812988667763541,0.2433329584566903,-0.20013699014160063,1.1262650588498482
1813,18.28771495819092,-1.1606333083993075,0.3108936032151031,-0.22064466689598491,1.2216417552276249
1814,18.297812938690186,-1.2348043728164175,0.3965570184220788,-0.2313001760343342,1.3173834215671112
1815,18.309232234954838,-1.3033508985309479,0.5038312442801214,-0.22882234614101812,1.4159552088635305
1816,18.318047046661377,-1.3664130168936717,0.6362815671505008,-0.2105403969811944,1.5219283899687797
1817,18.32813024520874,-1.4249422413330228,0.7972170997467751,-0.17476852909809282,1.642120438343957
1818,18.338197231292725,-1.4809456699973154,0.9893530594650963,-0.12101440702038085,1.7851229762857341
1819,18.34836196899414,-1.537685126573159,1.2145052853558227,-0.05000214314965619,1.9601017450533273
1820,18.35962820053101,-1.5997143349981773,1.473365087486767,0.03642411633748091,2.175136168352344
1821,18.36858320236206,-1.6726578507511662,1.7653893348592111,0.13540813007610755,2.4357173791318374
1822,18.37838697433472,-1.762701079791183,2.0888078594623343,0.24309569108115073,2.743962260212564
1823,18.388601064682007,-1.8758321728038219,2.4407060434016588,0.3545002373152808,3.098622718092649
1824,18.39854097366333,-2.016938661617634,2.8170937999131542,0.4632873251505068,3.49552488016924
1825,18.40989708900452,-2.1889097452288753,3.212840651665248,0.561663772143004,3.927994032415098
1826,18.418736934661865,-2.3919053128852887,3.6213913313533457,0.6405612922968829,4.387026894127626
1827,18.428877115249637,-2.622917217220249,4.034290937920168,0.6902150330164546,4.861233885751344
1828,18.43937492370605,-2.875692234668322,4.440685522728474,0.7011248228477969,5.336747113880824
1829,18.44912314414978,-3.141041440925422,4.827048720671886,0.6652690861513039,5.797337633978164
1830,18.46044111251831,-3.407549866921845,5.177367137736593,0.577347990882449,6.224938335200589
1831,18.46924495697021,-3.662714141133656,5.473905927033499,0.4358291075260419,6.600686933088092
1832,18.48056507110596,-3.89452434790892,5.698522156358464,0.24367944508778466,6.906508114446981
1833,18.496376991271973,-4.093417569173569,5.834320979316512,0.008775943775674559,7.12709237364725
1834,18.49948215484619,-4.25436043341763,5.867303639744529,-0.2560573527699312,7.251923887238227
1835,18.510894060134888,-4.3786322590018445,5.787665602069377,-0.5335379267462856,7.276960649902224
1836,18.519832134246823,-4.4747963502253665,5.590602331964269,-0.8030130045026812,7.2057939670486695
1837,18.52983522415161,-4.558459315755228,5.276659824327431,-1.042023485646262,7.050425744570692
1838,18.539813995361328,-4.650688512118635,4.851680501553431,-1.2282014455849097,6.831997227520138
1839,18.55001926422119,-4.7752232901367115,4.326439413505715,-1.3415058075188075,6.581829023987667
1840,18.56141424179077,-4.954789965199366,3.7162481646984813,-1.3667404554878186,6.342588075346862
1841,18.570158004760746,-5.207002909908842,3.040757424798521,-1.2959243518828611,6.167536375739465
1842,18.58141112327576,-5.540550819041206,2.3236951347172345,-1.1297960195999959,6.113403430446147
1843,18.596631050109863,-5.952433658765608,1.591921707001348,-0.8779142316073657,6.223858496245441
1844,18.600321054458615,-6.426771337214323,0.8736247218128695,-0.5573428223116444,6.509780410811451
1845,18.61166214942932,-6.935391983296442,0.196271717182886,-0.19033923514681245,6.940779032167408
1846,18.620450019836422,-7.440321630504762,-0.41497951285838164,0.19841123386739198,7.454526207558332
1847,18.630593061447144,-7.898180597899943,-0.9384131381909265,0.5844967790126735,7.975181029898232
1848,18.640522956848145,-8.265938335337303,-1.3568615759781624,0.9459706139832117,8.42980843806575
1849,18.65069818496704,-8.506789908599588,-1.6588802556195839,1.2647999104556331,8.758828521270686
1850,18.662265062332157,-8.594787783996154,-1.839636458475722,1.527606456446989,8.92122305724171
1851,18.670863151550293,-8.51739611006578,-1.9011756992116426,1.7258750150560604,8.896018778230593
1852,18.682229042053223,-8.27583172850375,-1.8520014049379725,1.8558002775587583,8.68120352673457
1853,18.69679021835327,-7.883528704184588,-1.70607052775192,1.9178544849370094,8.29089062168589
1854,18.70112109184265,-7.363295739514933,-1.4813489773821669,1.9160915254219544,7.751382178304962
1855,18.712231159210205,-6.74383061471844,-1.1980972946800383,1.8572452787572258,7.096763241999787
1856,18.721083164215088,-6.056236772995187,-0.8770853511779102,1.7497616833795562,6.364664053385166
1857,18.731153964996334,-5.331043911226233,-0.5379224942847898,1.6029201607708154,5.592740190200632
1858,18.74144911766052,-4.596012964739064,-0.19763304102449025,1.4261531445014852,4.816254434986344
1859,18.751322269439697,-3.8747931003577456,0.13044143170367473,1.228604889466953,4.067002152950868
1860,18.762779235839844,-3.1863461670419824,0.4373382113372552,1.018897982366624,3.3737545414255585
1861,18.77168893814087,-2.5449535291634993,0.7187041559269698,0.8050081472568476,2.764301402976591
1862,18.78268504142761,-1.9605543137361645,0.9745623925858926,0.5941199391173322,2.268595066601575
1863,18.796027183532715,-1.4391520544726963,1.2086977229979379,0.3923886537647666,1.919916059903846
1864,18.80188012123108,-0.9830892905836622,1.427776310364552,0.20464086432883183,1.7455336230080911
1865,18.81322312355041,-0.5911078720531101,1.640295881961385,0.03411611692622667,1.743887326124242
1866,18.82206606864929,-0.2582434895136215,1.8554293092038106,-0.11766279319195472,1.8770061678722407
1867,18.83227300643921,0.024293543503104687,2.0818064780952987,-0.25087205165254056,2.097008625350846
1868,18.8421630859375,0.2690496093448644,2.32628049780435,-0.367266872342843,2.370412116547241
1869,18.852335929870605,0.4918873644583502,2.5927396242298233,-0.4700095764794698,2.680515051318981
1870,18.86367702484131,0.7110813738494397,2.8810590299403427,-0.5634350882968437,3.0205292504725834
1871,18.87295508384705,0.946006710709694,3.1863283472605426,-0.652699514593641,3.387275260384761
1872,18.88259792327881,1.215621529828555,3.4985091875870475,-0.7432941178243568,3.777537343959155
1873,18.89578413963318,1.5370081974786334,3.8026499165679,-0.8404687407802863,4.186756297101513
1874,18.902706146240234,1.9241950556229164,4.079728533860712,-0.948629084647996,4.609404371751414
1875,18.91405200958252,2.3873635023583395,4.308134108194523,-1.070772924668463,5.040444290217356
1876,18.92303705215454,2.932406330982858,4.465733247686332,-1.2080475716369758,5.477331399944452
1877,18.933019161224365,3.560701933874627,4.5323874293345305,-1.3595233107261722,5.921945432363932
1878,18.94307804107666,4.268950973962506,4.492691745006399,-1.5222497448108028,6.381650712732609
1879,18.953105926513672,5.048982809623354,4.338598854924081,-1.691598383117145,6.868564080328961
1880,18.964783191680908,5.887517784602728,4.0714717322014735,-1.8618202304061855,7.396358719023762
1881,18.97326111793518,6.765913054790513,3.7030408993412474,-2.0266764417891348,7.974804622489619
1882,18.98319625854492,7.659931758161461,3.2548693660298516,-2.179952447896418,8.603541236299138
1883,18.99580812454224,8.53960291371566,2.756296071495636,-2.315682546176595,9.267382133717708
1884,19.00340509414673,9.369301533020074,2.241261974383974,-2.428034523963488,9.934909063702117
1885,19.01465606689453,10.108258264371548,1.7446790893575175,-2.510997683847064,10.56058235289903
1886,19.023563146591187,10.711768122749366,1.298979401077558,-2.558144108136163,11.089338351676579
1887,19.033842086791992,11.13335149170239,0.9312432427193895,-2.5626888938838452,11.462377754276726
1888,19.04388999938965,11.327994371954109,0.6610094499512869,-2.5179130063074053,11.623264424905804
1889,19.05406403541565,11.256402402685573,0.4986801307035943,-2.41786345328191,11.523946398810628
1890,19.06548500061035,10.889999840847821,0.44443959724797777,-2.258194809135422,11.130546567229917
1891,19.07420921325684,10.216181927152249,0.48774999612198183,-2.037052928862929,10.428703556165468
1892,19.084140062332157,9.243093195584525,0.6076248127926401,-1.7559342162181175,9.428005340848497
1893,19.095848083496094,8.003037469486026,0.7739397167557807,-1.4204145589885653,8.164874092265967
1894,19.10434103012085,6.55362647065214,0.9500405943558687,-1.0405840295040887,6.703388111262501
1895,19.115622997283936,4.97601801199444,1.096877944883477,-0.6310385049373682,5.134404159820153
1896,19.12461805343628,3.370022143635366,1.1787700045218403,-0.21034550211355452,3.576421843464852
1897,19.134602069854736,1.8461676743750528,1.17047042903645,0.20014182663450472,2.1950837929165163
1898,19.144780158996586,0.5149183270584949,1.0642656238688428,0.578398701605941,1.3161866355912808
1899,19.154853105545044,-0.5262128476916106,0.8744436847265799,0.9047032375397204,1.3638327121933849
1900,19.1660840511322,-1.205390809467214,0.6357491254110674,1.164281182880796,1.7923991259815064
1901,19.17503595352173,-1.48581007486549,0.3945230733988988,1.3479939901394615,2.044594784173141
1902,19.185014247894287,-1.3698030500646161,0.19600797514336568,1.4509925892408417,2.00503342024964
1903,19.19625425338745,-0.897958678506676,0.07382692343873512,1.4711252716625647,1.7251057265727625
1904,19.20519709587097,-0.14391755976439669,0.04478077995672995,1.4087576595678513,1.4167977010332709
1905,19.216413974761963,0.7948501835799816,0.10816298521075811,1.268104789684402,1.5005251758392306
1906,19.225435256958008,1.809243401071354,0.24807070304839973,1.05901055408798,2.1110196852945022
1907,19.235451221466064,2.7915978681448332,0.43792747877449256,0.7977717560447252,2.9361946306127673
1908,19.24552607536316,3.6474707723386395,0.6462995509694653,0.5060152494378362,3.738689286008079
1909,19.256097078323364,4.304706352591163,0.842713201925192,0.20781344217371492,4.391337922488522
1910,19.26701712608337,4.7190018386708825,1.0023188769685782,-0.07373153939425817,4.824837595651087
1911,19.276885986328125,4.875557707276228,1.1086844097497541,-0.31931068795855877,5.010209915048207
1912,19.28585624694824,4.786808092688553,1.1545517737622035,-0.5153482732279334,4.950970143037129
1913,19.295934200286865,4.486938696030502,1.1409419962847276,-0.6551269701022118,4.675848462875736
1914,19.306454181671143,4.024552671372839,1.0752737602443894,-0.7388535673729889,4.2307378148668295
1915,19.317389011383057,3.4549626116070162,0.9690825036054311,-0.7723679171497,3.6704822225204565
1916,19.326175212860107,2.8332758586532774,0.8357417427846637,-0.7648327994642237,3.0513743728026057
1917,19.336315155029297,2.209031503938843,0.688506192644792,-0.726377316819813,2.4251773067334446
1918,19.34640121459961,1.6227055487753008,0.5391131975269552,-0.6665736942663871,1.8352484375859925
1919,19.35663104057312,1.1039650058421304,0.3969859747592622,-0.5938975449254439,1.3149337976293887
1920,19.36805510520935,0.6712966513151989,0.26891144453584137,-0.5156623620950015,0.888178040007041
1921,19.377917051315308,0.33263873311813197,0.15904989481677612,-0.4378936899403405,0.5724476216224769
1922,19.38670492172241,0.08677324447111086,0.06919770331210041,-0.3650703281222634,0.38156816242318975
1923,19.3966760635376,-0.07469604010007803,-0.000759459363949104,-0.3000088169250983,0.30916882995857636
1924,19.40665626525879,-0.16501180735773527,-0.052297497357651886,-0.24408184527439417,0.2992321372945982
1925,19.418272972106934,-0.1999029322915997,-0.08771348274725974,-0.1976579794434077,0.2944885638392165
1926,19.427056074142456,-0.1955229620687009,-0.10966566981096246,-0.16050424602889624,0.2757125329478335
1927,19.437143087387085,-0.16688406222473168,-0.120821606624381,-0.1320144362000903,0.24469565222363984
1928,19.447164058685303,-0.1268064676085609,-0.12361323888901884,-0.11131239143761643,0.2091663489750581
1929,19.457211017608643,-0.08530667942931641,-0.12008621972897356,-0.09732221528497766,0.1765489827555713
1930,19.468531131744385,-0.0493573975280604,-0.11183014763036658,-0.0888373854189523,0.1511099455954109
1931,19.478727102279663,-0.022989398151656418,-0.0999806714488539,-0.08459593707797444,0.1329703713646001
1932,19.487586975097656,-0.007700310341329077,-0.08528557872700879,-0.08337541437439311,0.11951729766128144
1933,19.49766707420349,-0.003089269483660467,-0.06822045304439768,-0.08410155177699756,0.10833579653477676
1934,19.507703065872192,-0.007592135127783568,-0.04912957228454393,-0.08594134166521214,0.09928378314648108
1935,19.519220113754272,-0.019184526841021232,-0.02836353817530204,-0.08835998840028053,0.09476298812317702
1936,19.5278582572937,-0.03595382789403537,-0.006388947378756808,-0.09114943958299197,0.0981922437116901
1937,19.53802704811096,-0.056492922054174784,0.016149371047981812,-0.09444905494612722,0.11123343205925555
1938,19.54809308052063,-0.0801068994112053,0.03843606131545598,-0.09875628259003465,0.1328429504856213
1939,19.558300018310547,-0.10684217422670265,0.059586498414735525,-0.10488464586651955,0.16114152141941437
1940,19.56962919235229,-0.13736882181747445,0.07882556691392918,-0.11381464978462721,0.19503188896285836
1941,19.57989811897278,-0.17277820817588313,0.09565581051405884,-0.12643560084849478,0.23449585170635798
1942,19.588299036026,-0.21436743704262917,0.1099118428248197,-0.14325879046907689,0.28028038158964375
1943,19.5984570980072,-0.26345518728232986,0.12167936166780348,-0.16420513894525862,0.3334333972743032
1944,19.60863208770752,-0.3212359852517617,0.13115072468131675,-0.18851560207923207,0.39488125181173134
1945,19.619903087615967,-0.3886568615156908,0.13851030098295977,-0.21477647587089926,0.4651539466339504
1946,19.628674030303955,-0.46630072352649604,0.14390170931908217,-0.24103235891804123,0.544279950716433
1947,19.638744115829468,-0.5542788442519208,0.14748190946512188,-0.2649585049553195,0.63180610961978
1948,19.648898124694824,-0.6521437007257409,0.14954807421784208,-0.284075972568567,0.726880451717686
1949,19.6591911315918,-0.7588187448117308,0.15072751926694564,-0.2960095937194278,0.8283395150033341
1950,19.670738220214844,-0.8725348178306795,0.1522216244660529,-0.2987822157372186,0.9347508992896144
1951,19.67921805381775,-0.9907953243718762,0.15607257275217876,-0.2910988528887206,1.0444005768457736
1952,19.69744110107422,-1.1104360238471878,0.16539017727807237,-0.27253427393467194,1.155290874311194
1953,19.69955921173096,-1.2278416176665787,0.18446801656119427,-0.24354663367816237,1.2652819646166096
1954,19.70941400527954,-1.3393167544188382,0.21874226251349627,-0.20530953975290056,1.3725048463266285
1955,19.72083306312561,-1.4415326463359257,0.2745774453734007,-0.15942983363261595,1.4760850300074733
1956,19.7295401096344,-1.531942454032674,0.3588870384126718,-0.10762398311892786,1.5770955933457722
1957,19.739997148513797,-1.60909549982473,0.47862682065563555,-0.05138175545566866,1.6795570981067676
1958,19.7497820854187,-1.6728391540269074,0.640228886616507,0.008336384623676736,1.7911876947467749
1959,19.759865045547485,-1.7244167454962118,0.8490418622116347,0.07121861874846465,1.9234233251138415
1960,19.77128314971924,-1.7664451045544005,1.108810562957991,0.13733003061706675,2.090131266031085
1961,19.78009414672852,-1.80274393857983,1.4212084027074132,0.2063429588410471,2.3048419574182852
1962,19.79698801040649,-1.8380305301251856,1.785446519299098,0.2764037628041435,2.5773192551645256
1963,19.80013608932495,-1.877559312868722,2.197991518679242,0.34303037322910734,2.9110248240926504
1964,19.810158252716064,-1.9268055462862468,2.652401344179135,0.39854460097752237,3.3025218095829523
1965,19.821732997894287,-1.9912182960491094,3.1392626900188416,0.4323870081676086,3.7425765275137914
1966,19.830315113067627,-2.0759514701113835,3.6462153236652086,0.43231827759800245,4.217980534086649
1967,19.840281009674072,-2.185442358673225,4.158065537900961,0.3862115673422882,4.713260728552132
1968,19.85048723220825,-2.322806495954764,4.657007316248385,0.28404939945090596,5.211893247426414
1969,19.860599994659424,-2.489207633250582,5.122998544372381,0.1198375733323655,5.696984269862142
1970,19.87192916870117,-2.683531485796659,5.534370697868529,-0.10670074340869165,6.151583967185345
1971,19.880746126174927,-2.9027252859365493,5.868722642261417,-0.38874192506856825,6.558874889926875
1972,19.896652221679688,-3.1429990554191543,6.104033411885392,-0.7115101171970647,6.902457069960863
1973,19.90079498291016,-3.401753696228025,6.219832882338119,-1.052372608872606,7.166989423873938
1974,19.910877227783203,-3.679718732883421,6.198354334131775,-1.3823071988708697,7.339666177465673
1975,19.922812938690186,-3.9824939455328625,6.025822527021366,-1.6688507721051524,7.413221840260821
1976,19.931225061416622,-4.320649278849198,5.694139714587882,-1.8801725911777403,7.390959765327036
1977,19.94136905670166,-4.707855126996187,5.203030919502772,-1.9895558623010605,7.293405458035544
1978,19.951282024383545,-5.157142488724187,4.562287198925492,-1.979385301448289,7.164394552652251
1979,19.96137404441833,-5.6760943592984825,3.793370561481503,-1.8437568232098258,7.071573135838117
1980,19.97335910797119,-6.2622565096210545,2.9295654588081406,-1.5891499834788423,7.09391345025606
1981,19.981666088104248,-6.900150273923392,2.0141141374130824,-1.2331408186522066,7.293103992120128
1982,19.996560096740723,-7.560923235307143,1.0962663058316893,-0.8015709784702697,7.681918771832665
1983,20.001570224761963,-8.204943231110152,0.2259057446723688,-0.32479300133351846,8.21447608341101
1984,20.01172709465027,-8.786801016465205,-0.5519022380119046,0.16629218678101762,8.805686871258875
1985,20.023272037506104,-9.261620126998702,-1.2011575481278103,0.6436241424255404,9.361337450864854
1986,20.03184223175049,-9.591368303969169,-1.697470724190322,1.0841555003252954,9.800568654458436
1987,20.04208517074585,-9.749876325154549,-2.029001155449586,1.470654513680401,10.066765058509782
1988,20.05199408531189,-9.725548911902862,-2.1959278546110053,1.7915055602036245,10.13004901038055
1989,20.06219291687012,-9.52140036840287,-2.208660996839671,2.04001095384746,9.984833151645589
1990,20.08118414878845,-9.152813532940108,-2.0852887339489405,2.2135449930919044,9.644802025399391
1991,20.0830512046814,-8.643912247107728,-1.8488593604715438,2.3127604614318398,9.1369776634544
1992,20.09232521057129,-8.023527981084559,-1.5248824486065948,2.340928702834076,8.49601170768189
1993,20.10232305526733,-7.3215622460146985,-1.1391735144080752,2.3033873761126378,7.759419013214308
1994,20.112546920776367,-6.566268593952338,-0.7160822670287234,2.207039533885496,6.964171204473028
1995,20.124177932739254,-5.782683550580346,-0.27717647987515115,2.059894758952741,6.144869588942427
1996,20.132731914520264,-4.992143201634369,0.1595492517755335,1.870690137932708,5.333519597932034
1997,20.14281702041626,-4.2125698188839,0.5799629476411235,1.648613072809717,4.560704612606171
1998,20.152883052825928,-3.459072901845904,0.9737306294028277,1.403075237056614,3.8577139344128852
1999,20.16305494308472,-2.7444292932511907,1.3341068481147471,1.14343189490098,3.2587067566933268
2000,20.17583513259888,-2.079168290584907,1.657733762804334,0.8785738948189631,2.8005203262202083
2001,20.183249950408936,-1.4712175599045942,1.944460372274259,0.6164264316080079,2.5150325631095836
2002,20.196346044540405,-0.9252808808040146,2.197059567394949,0.36348660737806093,2.411501184906685
2003,20.203205108642575,-0.442250289487752,2.4206827957059973,0.1245509292310432,2.463900048693396
2004,20.21346092224121,-0.01895997845428332,2.62197130786347,-0.09728388619701103,2.623843969171158
2005,20.22441816329956,0.35153319027191043,2.807884967890132,-0.3003706056867037,2.845701333156154
2006,20.233517169952396,0.6791563327527137,2.9844307483190864,-0.4841217045390904,3.0987826707654684
2007,20.24372911453247,0.9757149066968197,3.1555169910839496,-0.6486200491146917,3.366008768301626
2008,20.25369691848755,1.253764704220184,3.3221248131190695,-0.7943414044637307,3.638601032585896
2009,20.26392126083374,1.5257082304756242,3.4819093173891567,-0.9220358217284674,3.9117295606436002
2010,20.27665424346924,1.8032266291049024,3.6292590536447933,-1.0327461092106305,4.182070310320646
2011,20.284069061279297,2.097017692282111,3.755784540860943,-1.1278936491453295,4.446970294807084
2012,20.298460960388184,2.4167335858702295,3.8511866408757576,-1.2093490532135085,4.7047598132573665
2013,20.30408406257629,2.7710051634549444,3.9044472910276573,-1.2794253722331095,4.955815527985379
2014,20.314252138137817,3.1674610909041037,3.9052530486444867,-1.3407659047640919,5.203985429237513
2015,20.32551908493042,3.6126512676497478,3.845498066342003,-1.3961247548766598,5.457863033374036
2016,20.33443117141724,4.1117504424192,3.720642042519752,-1.4480495971544276,5.731188057036616
2017,20.34447407722473,4.667891327126627,3.5306703882575894,-1.4984873951154065,6.041548419544673
2018,20.35464811325073,5.281030163184335,3.2804641633661777,-1.5483621768862472,6.406883028618865
2019,20.36469006538391,5.946411028794363,2.979524891690408,-1.5972128230450162,6.8402091711927495
2020,20.37702417373657,6.65290424057503,2.6411434928329798,-1.6429924996124028,7.3441267784385245
2021,20.384888172149655,7.381637703619148,2.2811912883613576,-1.6820901576153895,7.907075071095132
2022,20.397751092910767,8.10535902451795,1.9167416730555729,-1.709559551326172,8.502548877665626
2023,20.404948234558105,8.78888424422293,1.564732076252303,-1.7194875673312555,9.091177603754623
2024,20.41498303413391,9.390842142316819,1.2408469122306178,-1.7054334976659333,9.624766003205837
2025,20.42647123336792,9.866712380395972,0.9587147351874454,-1.6609144642713662,10.051357321205456
2026,20.43518805503845,10.17289758196662,0.7293761011285423,-1.579954550216589,10.320663306727425
2027,20.44531202316284,10.271333928654128,0.5608666273868127,-1.4577045197634237,10.389406841325274
2028,20.45530414581299,10.134004530023086,0.4577482061715814,-1.2910824219454677,10.226166195355828
2029,20.46547222137451,9.746702216229961,0.42052431760681275,-1.079354938048949,9.815296830756132
2030,20.48019003868103,9.111503127226445,0.4450429589041006,-0.8246192973553947,9.15956054940947
2031,20.48565411567688,8.247677341874757,0.5221275752218767,-0.5322078110480892,8.281306895328898
2032,20.49573516845703,7.191137157130008,0.6376979501821818,-0.2110330990691037,7.222440533311792
2033,20.50610113143921,5.992827394338929,0.7735695478264245,0.12619186634438673,6.0438658498344395
2034,20.51591396331787,4.71647559160472,0.9090559733586,0.4630070378712422,4.825546630799494
2035,20.52706623077393,3.43578937733372,1.023462528087265,0.7797095759656766,3.668796971031592
2036,20.53610897064209,2.2306742165568125,1.099383603545813,1.0545080196923449,2.701210641870085
2037,20.546236038208008,1.1816846758141968,1.126327440749005,1.2655089034735127,2.0655519750442104
2038,20.55661106109619,0.3622308003959237,1.1037704851666739,1.3935128791980962,1.8142212051377622
2039,20.56647109985352,-0.17066072665609117,1.0422925825250635,1.425213367718691,1.7739030567462257
2040,20.580735206604004,-0.3847741814974049,0.9613593441594164,1.3559541305368488,1.7061285307589116
2041,20.5864839553833,-0.27798207035794004,0.8838630953348574,1.1909678159589632,1.5089374875671506
2042,20.596620082855225,0.12059433442736087,0.8299173496908017,0.944587162070367,1.2631511024267574
2043,20.606544971466064,0.7534265042738155,0.8124949507492645,0.6380956582367147,1.2786577381754107
2044,20.616701126098636,1.5411454905830262,0.8354428807539475,0.29734406999190194,1.7780629139898847
2045,20.62801694869995,2.3921099090746223,0.8934255044665969,-0.04936493533532025,2.55398430808904
2046,20.636885166168213,3.2132917155016165,0.9736639415173597,-0.3734211615726493,3.378270043059422
2047,20.64705610275269,3.920536248854667,1.0590667013711208,-0.6486034988944375,4.112531246728058
2048,20.656891107559204,4.446974985751791,1.1317803263405135,-0.8543404386284116,4.667591543405375
2049,20.66720724105835,4.749088165762619,1.1763474789676733,-0.9787958457563218,4.989556403642511
2050,20.68228507041931,4.810056517494291,1.182119754568459,-1.020689803232117,5.057258001135825
2051,20.687294960021973,4.6399394401982095,1.1447201647843748,-0.9889422483897585,4.880310342080822
2052,20.69730114936829,4.27236786122595,1.0663101098646368,-0.8999796345596341,4.494452996156265
2053,20.70743417739868,3.758048002547795,0.9545451656762879,-0.773681746874275,3.953816473765047
2054,20.71750807762146,3.1562341251780177,0.8205263771643303,-0.6295723765896415,3.321360980972318
2055,20.72906804084778,2.5259090713088854,0.6764466250186624,-0.4843851818399448,2.6594032558838783
2056,20.73769998550415,1.9183442515749782,0.5335846996283474,-0.3510958989505034,2.0218866509990363
2057,20.74790906906128,1.3721472135901227,0.4009415607998184,-0.2387782196204693,1.44932989657457
2058,20.757965087890625,0.9112026715671921,0.28456020526714654,-0.15263418513647997,0.9667274763681573
2059,20.76794719696045,0.5452631657718005,0.18747942635334205,-0.09407241821835886,0.5842174895727738
2060,20.78281307220459,0.2724427667032157,0.11017213233282519,-0.06110307056209309,0.3001608653768517
2061,20.788147926330566,0.08264529299689401,0.051228155855358094,-0.04919802205253871,0.10897253681898665
2062,20.79818725585937,-0.03892920133155333,0.008067613345117049,-0.05244247422358811,0.06580867879003975
2063,20.808422088623047,-0.10874624206758776,-0.02242232439190256,-0.06468946486915528,0.12850382352294337
2064,20.818433046340942,-0.14260891483676458,-0.04336148476855584,-0.08050983981839255,0.16940884055986127
2065,20.82964515686035,-0.1540935759019518,-0.05748691231499203,-0.09582739822830198,0.19034827415284788
2066,20.838561058044437,-0.1537293723967977,-0.06692745510366489,-0.10817844701489883,0.19953591301498
2067,20.84859800338745,-0.14886456793738598,-0.07314932970296342,-0.11657950385888585,0.2027369348272816
2068,20.85871124267578,-0.14407773552153533,-0.07704181115218943,-0.12107987804487923,0.20335725068456725
2069,20.87009191513061,-0.1418735692192838,-0.07908220104273306,-0.12218174399944691,0.20324980376750315
2070,20.88125705718994,-0.1433601656544091,-0.07951239545518196,-0.12034402917850012,0.20336431222413764
2071,20.88946914672852,-0.14869958471813788,-0.07847423393723048,-0.11573155036100734,0.20411654424946601
2072,20.899013996124268,-0.15730197214993977,-0.07608016815557885,-0.10826117030256491,0.20555433204902918
2073,20.909174919128414,-0.1678904070521581,-0.07243290840121414,-0.09786416203644938,0.20739119848897744
2074,20.91917204856873,-0.17861918861113812,-0.06763239602792988,-0.08478551029806175,0.2089677924683199
2075,20.93048095703125,-0.1873677591693877,-0.06180107139902375,-0.06974116732228379,0.2092603164044719
2076,20.939789056777958,-0.19220604227048002,-0.055127937387307424,-0.05385588204198424,0.20708140475759906
2077,20.949608087539676,-0.19191122629258647,-0.04790662079307952,-0.038439800452444814,0.20150082221112656
2078,20.959468126297,-0.1863766061764235,-0.040542431205661415,-0.024738312744355177,0.19233281616860126
2079,20.970746994018555,-0.17680364990683756,-0.03352253054751329,-0.013760966743805354,0.1804789596612654
2080,20.981472969055176,-0.16565311001637328,-0.027352006422776295,-0.006220090502633462,0.16801123366998177
2081,20.989869117736816,-0.15639058682934356,-0.022444819476535406,-0.0025650872289645823,0.1580138134551942
2082,20.999802112579346,-0.15309351539090454,-0.01896178939446443,-0.0030753370287646053,0.15429397787867694
2083,21.009969234466556,-0.16000400149268784,-0.01663450153782226,-0.007950297633161445,0.161062703216914
2084,21.019922256469727,-0.1811043476718558,-0.014646512960820259,-0.017339508650626147,0.18252113205819492
2085,21.031394004821777,-0.2197548537096572,-0.011606473767019157,-0.03129280728359115,0.2222749327970775
2086,21.03992509841919,-0.2783959292573765,-0.00559456024152961,-0.04964209923841558,0.2828425896999442
2087,21.05016803741455,-0.3583084904410299,0.005732831883785274,-0.0718391834080629,0.36548421026943784
2088,21.060211181640625,-0.4594390796497749,0.024960802969664457,-0.09678519693606288,0.47018579725495224
2089,21.07139301300049,-0.5803007970706459,0.05464273541540053,-0.12269708213792531,0.5956420213346815
2090,21.082423210144043,-0.7179532114885538,0.09697586468851474,-0.14706247985339405,0.7392486085204646
2091,21.09034109115601,-0.8680622093009256,0.153508659988071,-0.16673357215449128,0.8971605162907773
2092,21.100532054901123,-1.025052327598139,0.22496133953526265,-0.1781830628881032,1.0644665718095838
2093,21.11083602905273,-1.1823757804008639,0.31121448058507106,-0.17788458815837516,1.2355200790390508
2094,21.12086820602417,-1.3329218983506612,0.4114831291345772,-0.16272416788640426,1.4044494677557595
2095,21.132094144821167,-1.4695803684819224,0.5246347227430711,-0.13035032361732155,1.5658541626225293
2096,21.14109897613525,-1.5859485520108265,0.6495585763297069,-0.07942727425157903,1.7156537662371592
2097,21.150965213775635,-1.6771308190119316,0.7854953268874107,-0.009810309622395916,1.8519899931739587
2098,21.161067008972168,-1.7405319994234303,0.932270648248701,0.07732656832040209,1.9759958503932105
2099,21.172276973724365,-1.7765218498614932,1.0904204723455575,0.17940165150632617,2.092183462822706
2100,21.183375120162964,-1.7888472301163751,1.2612418642292007,0.2924054581915845,2.208213396562843
2101,21.191338062286377,-1.7846871737552281,1.446827801812266,0.4110288803772929,2.3339588121403403
2102,21.201454162597656,-1.7742803487562535,1.6501036083864111,0.5290202442909965,2.480075622488591
2103,21.21147394180298,-1.7700988440683079,1.8747883709827002,0.6397559978618559,2.6565709270682283
2104,21.221768140792847,-1.7855923609942597,2.125125650871907,0.7368769281090934,2.871843783845893
2105,21.23304891586304,-1.8335935423382606,2.4052321729601265,0.8147859668774725,3.132264876438058
2106,21.2417311668396,-1.9245653325594467,2.71801848789749,0.8688694198697534,3.441875983911537
2107,21.25187110900879,-2.0649509467667446,3.0638091012614015,0.8954506130168834,3.801681262530748
2108,21.261881113052368,-2.2559005707104265,3.43896043143022,0.8916289917416754,4.208389061480489
2109,21.27223491668701,-2.49258895248853,3.8348510061822663,0.8552138886079864,4.653006847292727
2110,21.283863067626957,-2.7642598333348705,4.237557787481236,0.7848947393965761,5.119969548773099
2111,21.292267084121704,-3.0550862477634784,4.6283915161706455,0.6806370493002304,5.587381032390225
2112,21.302196979522705,-3.345911292102356,4.985305680775195,0.5441745234142675,6.028641722421447
2113,21.312381267547607,-3.616877067231175,5.284997615556347,0.3795015987018699,6.415373798876908
2114,21.322842121124268,-3.8507944283962874,5.505280237424871,0.19338416291421537,6.721169961905052
2115,21.33381414413452,-4.036828732172833,5.62716972760724,-0.004129942324195669,6.925391137879439
2116,21.34253692626953,-4.173767687949292,5.6362861379717355,-0.19942129879257148,7.016254484871115
2117,21.3527569770813,-4.271994379587844,5.523512990634579,-0.37556287854898573,6.992866308795206
2118,21.362741947174072,-4.353461096524739,5.2851138097516746,-0.5133827678800676,6.866484789711431
2119,21.380128145217896,-4.449397534802883,4.922560649747028,-0.5934276108656499,6.661898986211481
2120,21.384515047073364,-4.595978050792746,4.442356739715451,-0.598770042238415,6.419974548995205
2121,21.39307713508606,-4.8285398123997165,3.856148780131715,-0.5182949774136392,6.201073279526102
2122,21.403018951416016,-5.175157376957667,3.1812206121885414,-0.3496713340613913,6.084791574208345
2123,21.413156032562256,-5.650485361633741,2.441067086294204,-0.10097082257540599,6.156052992692446
2124,21.42331004142761,-6.25084081946637,1.6654670212923188,0.20986629249067573,6.472312972194954
2125,21.43486595153809,-6.951533878825269,0.8895068872544166,0.5577519410208063,7.030372180663056
2126,21.443416118621823,-7.7073368733798215,0.15138310647592906,0.9144707601877933,7.762874164632902
2127,21.45348691940308,-8.45652771759363,-0.5106899438730448,1.252723690824357,8.564051722330674
2128,21.46353912353516,-9.128178570805813,-1.061955935388533,1.5492959220830012,9.319426607007987
2129,21.479888916015625,-9.651524538771666,-1.474594842303707,1.787016371100137,9.925713242988648
2130,21.48474502563477,-9.965660065414406,-1.7307804676639968,1.9554366706767983,10.302121827064084
2131,21.493816137313843,-10.027746720071375,-1.824666407412611,2.050346871715625,10.39658761683834
2132,21.50397825241089,-9.818385317201432,-1.7627336757955736,2.072589086886239,10.188402513245164
2133,21.51395893096924,-9.343502016305775,-1.5624434678345565,2.0267936246462614,9.687628807700866
2134,21.52391815185547,-8.632707436750907,-1.2496543411934251,1.92039390394453,8.93158364498174
2135,21.535365104675293,-7.734564895655941,-0.8554443244167224,1.762895742879994,7.97891474560008
2136,21.544273138046265,-6.70965294145599,-0.4128662341538527,1.5652431123682533,6.90216539376663
2137,21.55431008338928,-5.62268599058527,0.04603174356532391,1.3391838857438803,5.780149665015224
2138,21.56448006629944,-4.535071880846919,0.4927402223536006,1.0966107652597707,4.69171877478362
2139,21.580018997192383,-3.499056418956195,0.9042717203297111,0.8489052676751989,3.712377044524614
2140,21.58572506904602,-2.554145913647732,1.2644879554534774,0.6063647297873196,2.9138066722451526
2141,21.5945782661438,-1.7259536797339161,1.5646586462753629,0.3777959188370485,2.360042910677945
2142,21.60459899902344,-1.0270898641092414,1.8032150372119171,0.1702865546677763,2.082185287164362
2143,21.614797115325928,-0.45933125770422123,1.9848252573822716,-0.010916336196545508,2.037310892584315
2144,21.624835968017575,-0.01620563824031099,2.1190495335765496,-0.16250316027457554,2.125333109317453
2145,21.63596510887146,0.3146679786284022,2.2188184547505556,-0.28319679506526757,2.2588429995577313
2146,21.645023107528687,0.5497790024680718,2.2988603213412206,-0.37381165720043424,2.393063075568796
2147,21.65515613555908,0.7084618890884649,2.3741226044653567,-0.437240349538674,2.515860789588499
2148,21.66672706604004,0.8120275197555016,2.458232872789357,-0.47836620318131573,2.632704270146686
2149,21.68087911605835,0.8831184471015867,2.562060306940768,-0.5039053002281639,2.756441865813712
2150,21.686601161956787,0.9451394721567248,2.6924392679756743,-0.522138542011614,2.900887190260954
2151,21.695532083511356,1.0216754363634297,2.851140789174129,-0.5424682685477915,3.0768646898006615
2152,21.705414056777958,1.1358806989559707,3.0342306058516506,-0.57477285547468,3.2904626068591174
2153,21.71559715270996,1.3098525197928303,3.231969401292805,-0.6285949734594285,3.543511178923958
2154,21.725646018981934,1.5639613875670908,3.429347727224947,-0.7122240590233547,3.8358394343709685
2155,21.736999988555908,1.9160519699471468,3.6072421280190246,-0.8317289520256047,4.168359865862253
2156,21.74589705467224,2.380413217118536,3.744111148398079,-0.9900191722138298,4.545863321432174
2157,21.75644612312317,2.9664657945268704,3.818153629007304,-1.1860777377059848,4.978453258260172
2158,21.767245054244995,3.6772076354455057,3.809864678672428,-1.414562993226017,5.48068547955263
2159,21.78054714202881,4.507573466685647,3.7048531475928805,-1.6659634693646836,6.067914772313051
2160,21.78734016418457,5.442980015609824,3.496612393256119,-1.9273844395549136,6.750343728791788
2161,21.79634714126587,6.458379522462014,3.1887352603100165,-2.183870445412023,7.526485816026305
2162,21.80658197402954,7.518066121189004,2.7959395077422884,-2.4199877905032934,8.378241870446871
2163,21.816545963287357,8.576324777417177,2.343353960608444,-2.6212695347357773,9.26907268534307
2164,21.82648706436157,9.578924353918818,1.8639096341516708,-2.7751340391888992,10.145507372125229
2165,21.83809900283813,10.465491957352251,1.3942810995162123,-2.8711081176772537,10.941380329614038
2166,21.846713066101078,11.172866030484334,0.9702956969397619,-2.9005732907189596,11.583942959523014
2167,21.856651067733765,11.639488947026107,0.6227645794930982,-2.856539698695336,12.001056525141301
2168,21.868242263793945,11.81074598982468,0.3742958998042137,-2.733875894011358,12.12880437885888
2169,21.88043713569641,11.644956316450903,0.23715416335881534,-2.530065124877114,11.91899657040674
2170,21.888165950775143,11.119540809934172,0.21199332207445817,-2.246256124121083,11.346135710784846
2171,21.897229194641117,10.23671316131192,0.2874006442268994,-1.8883132190122514,10.413386686874503
2172,21.907124996185303,9.027804843051284,0.44044172597034525,-1.4676416566079702,9.15692203911374
2173,21.91738510131836,7.555115164268488,0.6385554982558135,-1.001601985827675,7.647922908066368
2174,21.9274320602417,5.9102158581314885,0.843121238599973,-0.5132968139449479,5.992076312255486
2175,21.93885803222656,4.208075430255043,1.0148286855452138,-0.030498316385039553,4.32882273083848
2176,21.94761109352112,2.577006153770179,1.1206221946247152,0.4164393191588079,2.8408056121805196
2177,21.95762300491333,1.1450320818562072,1.1413462445787372,0.7976795704068346,1.8027929486045753
2178,21.968849182128903,0.024129766221598507,1.0780052481570397,1.087682434619499,1.5315778267041575
2179,21.979894161224365,-0.7047273031531895,0.9530880487163452,1.2686514566441456,1.7362298001303889
2180,21.989508152008057,-1.001940350500971,0.8041962335235375,1.332139041853818,1.8507324157767002
2181,21.997880935668945,-0.8729108880721111,0.672009060119701,1.2783251794278025,1.6875084769437247
