,time,New_AccelerationX,New_AccelerationY,New_AccelerationZ,new_NetAcceleration
997,10.000420093536375,2.485032221663923,-1.2249273272492782,4.372988187751023,5.17676132248339
998,10.011859893798828,1.9294811199625157,-1.024111742046518,3.534509500403907,4.155052305439106
999,10.020694017410278,1.4020263297114393,-0.8330726326812677,2.7367244821054317,3.1858042519090644
1000,10.030807971954346,0.9297947005553073,-0.6580859943118229,2.013533561178894,2.3134201440905353
1001,10.0413818359375,0.534269784804918,-0.5033633058118243,1.3901253052364249,1.5720264580635928
1002,10.058477878570557,0.229113317247601,-0.370825840455172,0.8810131406355245,0.982949067888034
1003,10.066740036010742,0.018800243663345154,-0.2604883724889371,0.4901319960994448,0.555371060610978
1004,10.070495128631592,-0.10151963944624309,-0.1711685130806378,0.2125275891930631,0.2911578149934277
1005,10.080565929412842,-0.14471048124099808,-0.10100904245571792,0.03668795328814102,0.1802497044527261
1006,10.090657949447632,-0.12902390535158842,-0.04750552920323384,-0.05329257547181262,0.1474586113371267
1007,10.100613117218018,-0.07470389639171492,-0.00720790946593925,-0.07597317570895334,0.10679208548519291
1008,10.113236904144289,-0.0006526101781293616,0.02443123571294608,-0.05102341275975372,0.05657472782222049
1009,10.120905876159668,0.07803545550004856,0.052691382957706326,0.00243002048769912,0.09419033470938705
1010,10.131351947784424,0.15121421076800906,0.08270147973079396,0.06757891474338476,0.18512747501586158
1011,10.141100883483888,0.21354108540341613,0.11837501876966634,0.1314698421671949,0.2773026498673517
1012,10.158215045928957,0.26346274582462953,0.16159109019327467,0.18580691207210837,0.3606223889903074
1013,10.166980028152466,0.3018544955407166,0.2118993879872921,0.2267566797694854,0.43293888590378476
1014,10.170988082885742,0.33071824808514977,0.2667760039334085,0.25390594420719553,0.4949870951802038
1015,10.180789947509766,0.3521492105854514,0.32226436720441587,0.2688119433460247,0.5478350570847813
1016,10.191318988800049,0.3676356983698835,0.37378326121572275,0.27361890983716924,0.591385864644611
1017,10.200862884521484,0.37770359593640823,0.4169371379029975,0.27007480057115546,0.6240488612677585
1018,10.213621139526367,0.38189660425797717,0.4482370277463142,0.25906557337116964,0.6433322786031779
1019,10.221114158630373,0.37903190961218536,0.4656907622234156,0.24061169478754646,0.6468593836321934
1020,10.231215953826904,0.36765511282763175,0.4692210136229873,0.21422435703555798,0.6334277518083499
1021,10.241321086883543,0.34667179767444795,0.46082247370024904,0.1794911771456699,0.6039501388717353
1022,10.258345127105711,0.31610245039908,0.44441831399057463,0.13669456218500378,0.5622399846057533
1023,10.267277956008911,0.2777527990034717,0.425581683887805,0.08725907816526743,0.5156360477481134
1024,10.27082896232605,0.23556018944264914,0.4113901009392951,0.033844637748522914,0.4752640082158851
1025,10.2809419631958,0.19559965028175205,0.41050628169795145,-0.020057509535585945,0.45516693002962294
1026,10.291115045547484,0.1659606255541633,0.43335052101643,-0.07094880574125782,0.46943512473573096
1027,10.30106782913208,0.15666707534116942,0.49214407832907064,-0.11621256744645406,0.5293918465209138
1028,10.313912868499756,0.1796076326483524,0.6006147826113063,-0.15470811759685135,0.6457024240678778
1029,10.321414947509766,0.24834358080112515,0.7732392774193678,-0.186947341570282,0.833380359013426
1030,10.331945896148682,0.3777206695865845,1.024055098886065,-0.21492729893240936,1.1124547153092874
1031,10.341576099395752,0.5832731589449769,1.3652083868245597,-0.2417481223820919,1.5041421714974406
1032,10.35833215713501,0.8803922201095783,1.8054232607782295,-0.27114446147604426,2.0268603629203716
1033,10.367992877960203,1.283182064040797,2.3485268376218946,-0.3070314075411029,2.6937711116059893
1034,10.371211051940918,1.8029209252339788,2.992111898765277,-0.35308006015510085,3.5111142115087093
1035,10.381206035614014,2.446121283386217,3.726403058259177,-0.41224671120531065,4.476554080600163
1036,10.391793966293337,3.212322980139893,4.5334314028186125,-0.4861924589048376,5.577401036315455
1037,10.40132999420166,4.0918864845244345,5.386700730581763,-0.5746497993079726,6.788983882358871
1038,10.414780139923096,5.064133705703505,6.251587679537925,-0.6748934084646678,8.073616278780023
1039,10.42154598236084,6.096217623575888,7.086720951929645,-0.7814291453972255,9.380624428778294
1040,10.431815147399902,7.143121015352307,7.8465209230511475,-0.8858120312343025,10.647851022179388
1041,10.44163990020752,8.149206518186512,8.48491411712783,-0.976338092034523,11.804938395478661
1042,10.46763515472412,9.051737173732173,8.959953160519628,-1.0376199985542145,12.778550847511239
1043,10.470010042190552,9.786644559986458,9.238766974905143,-1.0507414756013573,13.499529051365435
1044,10.47154712677002,10.296411862640547,9.302053204289834,-0.9950032852115887,13.911661388854517
1045,10.481515884399414,10.539288586984178,9.147179879931125,-0.851727507513299,13.981163879398832
1046,10.491654872894289,10.498332846848038,8.788846290292927,-0.6096200368688234,13.705124890600455
1047,10.502444982528688,10.188172482455348,8.256404526769096,-0.2701102984881517,13.116403234700545
1048,10.514395952224731,9.65717660018055,7.587727909715138,0.14986106826717227,12.282391178379193
1049,10.521939992904665,8.983388128627386,6.820869028000251,0.6197194504315545,11.296440535139364
1050,10.532000064849854,8.26426210816524,5.986055018857846,1.1015578101602093,10.263737744621789
1051,10.542266845703123,7.6022731358621325,5.100988952003195,1.5581966394765359,9.286690577810035
1052,10.560841083526611,7.089554646869101,4.17140054842487,1.9599094281156129,8.455980877033666
1053,10.569241046905518,6.7944778854657715,3.1966400365392937,2.28802053119068,7.849743639791011
1054,10.571707010269163,6.75221780471114,2.1780614525074578,2.5350903537992733,7.534127691716086
1055,10.58170199394226,6.960607710809917,1.1270157873427469,2.7023905887541964,7.551366709602542
1056,10.592342853546144,7.381874068210009,0.06958522449582834,2.795987537491497,7.893950416121657
1057,10.602277040481567,7.9498375814051,-0.9535605394352398,2.823070030769155,8.48993048686006
1058,10.612316131591797,8.581007288770646,-1.8920600215333796,2.7898382840641918,9.219369548198515
1059,10.621970176696776,9.187251455654682,-2.693848141222577,2.701117706897303,9.94778588349747
1060,10.632199048995972,9.687744786306821,-3.3138288171531802,2.5606137156491817,10.554174675206989
1061,10.642267942428589,10.018443898167959,-3.7209674021459405,2.3707075224479843,10.946920603784562
1062,10.66049599647522,10.13800880452712,-3.9023367972201974,2.131956404053305,11.070351986653003
1063,10.66910195350647,10.02966632422876,-3.8636642970595445,1.8432275733363734,10.905026192671366
1064,10.671926975250244,9.699112864218597,-3.6267703991281923,1.5027320380310647,10.463482090536024
1065,10.681915998458862,9.169324064883169,-3.224862572949157,1.1094562505252132,9.783002381328716
1066,10.69290804862976,8.473858898371551,-2.696949358772785,0.664613191735137,8.917484576264991
1067,10.702777862548828,7.6504668164751966,-2.082637794529123,0.1730343842711187,7.9307605934947585
1068,10.712435960769652,6.736381111373505,-1.4182763160755785,-0.3556588919713807,6.893245348444299
1069,10.722182035446169,5.765873518746775,-0.7348503936218317,-0.9063695083815861,5.882755155615042
1070,10.732481002807615,4.769817651393447,-0.057348700019204626,-1.4584899241904536,4.988150174153087
1071,10.74226188659668,3.776417613860662,0.5951891823763801,-1.9865529542282978,4.308360801633041
1072,10.76093816757202,2.812013931613206,1.2097179828295563,-2.461529098588503,3.9280994708339425
1073,10.769650936126707,1.9009695056793177,1.7795711072318572,-2.8527063234253287,3.8624463433073015
1074,10.772233963012695,1.0640024868026803,2.3047748203689435,-3.130086387609325,4.030078046195405
1075,10.78218412399292,0.31490351689038726,2.7915530274111213,-3.267176366321586,4.308871538865884
1076,10.79229497909546,-0.34375649396893593,3.250495641565008,-3.2438878850427075,4.605073186574322
1077,10.802922010421751,-0.9247208002310113,3.6934729396035815,-3.049090134393517,4.877889047694676
1078,10.81308889389038,-1.4584009477772408,4.12998269224389,-2.6823790704024244,5.136034252226577
1079,10.822182178497314,-1.9920779395657244,4.56385575402209,-2.154824686494112,5.425902993083217
1080,10.83287501335144,-2.5852282439213115,4.991068652927288,-1.4886485642714742,5.814657850579809
1081,10.842725038528442,-3.301332505299378,5.399057274475479,-0.7158397222795571,6.368755158710855
1082,10.86041784286499,-4.197556029178475,5.767636880191014,0.12426919088108117,7.134462462697126
1083,10.862241983413696,-5.314233052210276,6.071449522206693,0.9883065307243484,8.12898038087068
1084,10.872551918029783,-6.666006512431455,6.2836945091579945,1.8326306971725859,9.342322772224271
1085,10.882269859313965,-8.235974442740462,6.3807031680597515,2.616932290209478,10.74211257397272
1086,10.892410039901732,-9.973568685673555,6.346706280356144,3.3069644697972818,12.275535301625828
1087,10.902421951293944,-11.796312059873003,6.17794290951813,3.8757755066692705,13.868727143659148
1088,10.913141965866089,-13.595141120451283,5.885158401887956,4.303225928697322,15.42662324987911
1089,10.92287302017212,-15.242747373876188,5.493683988330296,4.574546154409838,16.835925391444093
1090,10.932896137237549,-16.604439844839206,5.040766565938831,4.67975272696002,17.972669131730555
1091,10.94318914413452,-17.551141986278672,4.570507888598919,4.615545526456584,18.714576882447876
1092,10.960137844085692,-17.973861130493887,4.127402067410899,4.389306425912223,18.95682311635842
1093,10.962409973144531,-17.79824043377892,3.7497895831964123,4.022680090152478,18.628479260652497
1094,10.972677946090698,-16.99726172602588,3.464453631401832,3.552096460518793,17.706686149926185
1095,10.982472896575928,-15.600324520820108,3.283096444224209,3.0253868176795384,16.226577359799812
1096,10.992977142333984,-13.697282818899387,3.200861285311644,2.495447928009416,14.285948689188608
1097,11.003178119659424,-11.435872071989722,3.1968807388129443,2.0125935686948284,12.043660132113471
1098,11.012598037719728,-9.01059576387365,3.237087718681773,1.6171857674707275,9.710039275146523
1099,11.023187160491943,-6.641466661343456,3.2795689174348026,1.333958171059299,7.526227215549431
1100,11.034260034561155,-4.542762189478388,3.281902556101471,1.1691753677869055,5.724905565905825
1101,11.042759895324709,-2.885761327011511,3.208623319725415,1.1113323468774547,4.456225042519412
1102,11.060523986816406,-1.7647888741630091,3.036628732951823,1.1353349354817759,3.6911487707600656
1103,11.062849044799805,-1.179170871050612,2.7576814882810523,1.2089444297997427,3.233697228914
1104,11.073580980300903,-1.0398195458560666,2.3788693659400444,1.2994392590239243,2.903237251077657
1105,11.08290696144104,-1.198554762691815,1.9220561594193195,1.3786782296135838,2.6517139853203293
1106,11.093843936920166,-1.48877789128436,1.4219221753975047,1.4258644534702243,2.504278683001199
1107,11.10373306274414,-1.763955881240677,0.9210782173860851,1.42859490864631,2.449654842323069
1108,11.113157987594604,-1.9239941959286084,0.4617841979098045,1.38313958792629,2.4141403089081384
1109,11.12286615371704,-1.9249817685897361,0.07660713997324997,1.2940185574217753,2.3207558015115857
1110,11.133398056030272,-1.7733390475907227,-0.2178924125596311,1.1722869989907583,2.136928938725803
1111,11.143409013748167,-1.5098295451075998,-0.4217616953601715,1.0324764137068094,1.87709235995829
1112,11.16015100479126,-1.1904260281511068,-0.5470655842286436,0.8889254236744901,1.583219280706851
1113,11.162805080413818,-0.8695810761457645,-0.610840715238477,0.7523545718967685,1.302050317475423
1114,11.173403024673462,-0.5888457082167644,-0.6286660822121428,0.6274098604196573,1.0656469602833207
1115,11.182881832122805,-0.3715981716941641,-0.6110491520304807,0.5119573646290212,0.8795263558310845
1116,11.193058967590332,-0.2232744401002611,-0.5633155624944647,0.39867677360165077,0.7253406567675371
1117,11.202945947647097,-0.13567203715774917,-0.4880625439046868,0.27859077395285736,0.5781217585949348
1118,11.213583946228027,-0.09337676226955786,-0.38827755889639093,0.14514079382409587,0.4249053218146068
1119,11.223459959030151,-0.08015164946222049,-0.26940819053173115,-0.0028808535310265388,0.2810931506710248
1120,11.23361110687256,-0.08343405573430432,-0.13969944589199831,-0.1605831442471499,0.22861347960062922
1121,11.24348497390747,-0.09598924074483764,-0.009191228584173533,-0.31832869189158625,0.3326132425251066
1122,11.261672973632812,-0.11496907974724695,0.11179624495352994,-0.46419954030378013,0.4911186240633512
1123,11.26303005218506,-0.13954759709741626,0.21412279111047272,-0.5863832673857277,0.639661971511957
1124,11.27396011352539,-0.16851444428243248,0.29107010461704996,-0.6748145145471905,0.7539851144267756
1125,11.283143997192385,-0.19877091788887064,0.3392727438002131,-0.7222087848440458,0.8223146608142301
1126,11.293766975402832,-0.2250593503258731,0.3591312584188478,-0.7249725041778579,0.8397690776377298
1127,11.303205013275146,-0.24082865922490107,0.3545543015366248,-0.6840589770449751,0.8072446221053474
1128,11.31407904624939,-0.23986988199415363,0.33206699861177946,-0.605234621710285,0.730831717409498
1129,11.323843955993652,-0.2181254074456001,0.29944940242610135,-0.4982270496046037,0.6208694153719979
1130,11.333807945251465,-0.17500103032704983,0.2641739377599039,-0.37487304089672147,0.49085947764941606
1131,11.34372615814209,-0.11373028007085476,0.23203942319783177,-0.24699527146857506,0.3574682288691019
1132,11.361263990402222,-0.04072384023651908,0.20638188068037613,-0.12480522655275762,0.24459815291956663
1133,11.363254070281982,0.03581972046807666,0.18800928128236563,-0.016221334774473312,0.1920772603006102
1134,11.373671054840088,0.10753422084207902,0.17573129588367092,0.07302905476057234,0.21858256985471186
1135,11.383222103118896,0.16720195953865297,0.16719868164059032,0.1389634843146924,0.27426765100681594
1136,11.394362926483154,0.20946447082383104,0.15977915433741616,0.17894563366467642,0.3184749323038471
1137,11.403409957885742,0.2309454951370776,0.15133748781401918,0.19145549364883271,0.3359971175327053
1138,11.414392948150637,0.2300222179337014,0.14090700496458117,0.17597416997178142,0.3220743909230989
1139,11.423926830291748,0.20659002437707596,0.12924757785994098,0.1329549730946632,0.27759935054928525
1140,11.433917999267578,0.16211382889246712,0.11926803654797313,0.06389398177399642,0.21115917921587155
1141,11.443893909454346,0.10000333807239487,0.11630168337136244,-0.028542988077151166,0.15601747129410454
1142,11.46251392364502,0.02610047544844758,0.12821528604530683,-0.14043898739090835,0.19194661646848216
1143,11.464959144592283,-0.050961094405533446,0.16530480002438558,-0.2666630590560036,0.31785515116042634
1144,11.473689079284668,-0.11965363815222847,0.23992061840031387,-0.40101638703466874,0.4823826685599232
1145,11.48348093032837,-0.16576206695078757,0.36578923238451533,-0.5364340612657144,0.6701047137979843
1146,11.493648052215576,-0.17292259812118643,0.5570617449092526,-0.6652317744403837,0.8847334775554864
1147,11.503623008728027,-0.1234796383825154,0.827173266016308,-0.779466949422898,1.1432548090210692
1148,11.51467514038086,0.0003931676051218471,1.1875834575898836,-0.871489791118946,1.4730407595672472
1149,11.523555994033812,0.2153783790581062,1.6464231890218848,-0.9346544016739129,1.905433287754549
1150,11.53635597229004,0.5355730608796178,2.207070367062482,-0.9640494982156461,2.467263574025913
1151,11.54394006729126,0.9709685883150698,2.8667224966892784,-0.9570908573670804,3.174413454762096
1152,11.561387062072754,1.525883645097135,3.6150692276631933,-0.9138625178184512,4.028919348987487
1153,11.563592910766602,2.1974019297802254,4.433175248727812,-0.8371360391965723,5.0182083232022645
1154,11.574461936950684,2.973929713796215,5.292708336016029,-0.7320278605696123,6.114972139052125
1155,11.584723949432371,3.834058540004476,6.155730976222209,-0.6052982680436202,7.2773219478802424
1156,11.59500789642334,4.74596381130108,6.975391598288802,-0.46436027400175295,8.44960892063819
1157,11.603732109069824,5.667589845438661,7.697930553957904,-0.31611010715258914,9.564498683648928
1158,11.613956928253174,6.547900544404306,8.26638553934175,-0.16566647139310692,10.546827807648725
1159,11.624878883361816,7.329549896955662,8.62617109064987,-0.015068235133618858,11.31960054192887
1160,11.636338949203491,7.953389964188015,8.732231980529164,0.13791849882475254,11.812167827987418
1161,11.644377946853638,8.365097682687354,8.556727776477222,0.30040379829628666,11.970074850378715
1162,11.661800861358644,8.523672260250143,8.095455796852438,0.48357703775666167,11.765340628744882
1163,11.66409397125244,8.410635608715564,7.370973161180717,0.699959656196012,11.205354979015288
1164,11.674414157867432,8.037809733466734,6.431003058238673,0.9593069950202026,10.338493872764177
1165,11.685201168060305,7.451122769216519,5.34199692371641,1.2650094550933664,9.255074855256874
1166,11.695348978042604,6.72837420922322,4.179047658468969,1.6130061054324953,8.083145892983602
1167,11.70418405532837,5.970240999359097,3.0143032085089354,1.99413042411633,6.97899402289771
1168,11.714922904968262,5.285801747294014,1.9066186351795256,2.3989731654059403,6.109825445955726
1169,11.724518060684204,4.775796509777906,0.8952839603289442,2.8224616976618404,5.619257576156948
1170,11.736371994018556,4.517460364101692,-0.0002695448667203171,3.265138806466715,5.573919593910475
1171,11.744659900665283,4.5536941564081115,-0.7750891370574081,3.7305969933970955,5.937528742467967
1172,11.761652946472168,4.887868123701091,-1.4305114808070063,4.2214208881607735,6.614983915809167
1173,11.764145851135254,5.484730139136338,-1.9672367135015962,4.736440722183006,7.509071560509498
1174,11.774399042129517,6.277142502974982,-2.3825866370072664,5.270315406200618,8.53554108222415
1175,11.785699844360352,7.1771183053029874,-2.6721886894574722,5.814645973469034,9.615702125022349
1176,11.794515132904053,8.088525600955899,-2.834080704529814,6.359405863765642,10.672314780646419
1177,11.804265975952148,8.918747197291271,-2.872606005343792,6.894177548837354,11.63295323234909
1178,11.815459966659546,9.5875430434811,-2.800192584314518,7.409312803311446,12.43623642173016
1179,11.824422836303713,10.032691370094295,-2.6363737208386713,7.897063640971126,13.037215065842913
1180,11.83757996559143,10.212944373531501,-2.404594830497125,8.352363072001628,13.410752326481864
1181,11.844341039657593,10.109088580263103,-2.128053270549461,8.772835702870667,13.553041316083428
1182,11.860913038253784,9.723619826894026,-1.8258602322786361,9.157902462977534,13.481458587526545
1183,11.864675998687744,9.079116208738784,-1.5103802392223598,9.507348928325424,13.232584148372052
1184,11.87521505355835,8.215139191024527,-1.186094394832729,9.820136382213304,12.858087354137478
1185,11.886105060577393,7.18357458270376,-0.8500173657768273,10.094161100746614,12.418468570448443
1186,11.894688129425049,6.042692709485535,-0.4935258559630158,10.327091024412125,11.975245800327738
1187,11.904653072357178,4.850633352796455,-0.10524328907574694,10.517823391990065,11.582932658798041
1188,11.915535926818848,3.6592918197465423,0.32564330719234913,10.667937141476067,11.282789683410202
1189,11.925709009170532,2.509621694743109,0.8063921455539153,10.782659257307182,11.100189638124593
1190,11.938245058059692,1.4291714189746332,1.3386433945948317,10.871014249030727,11.045969757578346
1191,11.945022106170654,0.43223562814892663,1.9175200930235754,10.944939698506397,11.120045681081159
1192,11.961965084075928,-0.47762872449241905,2.5317921647310846,11.017393840702594,11.314639534912521
1193,11.964563846588137,-1.3036562093043549,3.164835513152058,11.099853704916152,11.615612579967836
1194,11.975312948226929,-2.0519122219602934,3.7960687403367346,11.199854422763773,12.002383960659357
1195,11.986504077911375,-2.7287181385612143,4.402540124241842,11.31914698533128,12.447945641783889
1196,11.995872974395752,-3.3402553675999793,4.960399105287501,11.452747822007646,12.920073447121668
1197,12.004650115966797,-3.8941925988730564,5.446162693048185,11.58888324285277,13.383857399596772
1198,12.01585292816162,-4.402316163524047,5.8379037870421415,11.709719895129723,13.805037060898567
1199,12.02534008026123,-4.882680030300867,6.116583368616423,11.792752639623997,14.153521512432608
1200,12.037489891052246,-5.359881558306802,6.2676146889823805,11.81271603085453,14.406650694531072
1201,12.045188903808594,-5.862731621252859,6.282471222039435,11.743890998680937,14.551977271405113
1202,12.06279993057251,-6.419599247951522,6.159962108224786,11.562700947467102,14.589463351323841
1203,12.064738988876345,-7.052589465437094,5.906822927896933,11.250476259237143,14.532817735359574
1204,12.07557487487793,-7.772023332421057,5.537417856289156,10.796100152671336,14.409133273773179
1205,12.085888862609863,-8.572367741782026,5.072504880366549,10.19788770133557,14.255269482922404
1206,12.095134973526,-9.430135120096935,4.53717085265048,9.46377919085806,14.109446633470244
1207,12.105453968048096,-10.303828372100396,3.9582408957917234,8.60939445253223,13.99850788298924
1208,12.115507125854492,-11.136053003552634,3.361712291170424,7.654845504476132,13.925137188693633
1209,12.12560510635376,-11.858208929471274,2.7709182717842236,6.6223123450382975,13.861822675216509
1210,12.13740587234497,-12.39797820505844,2.2059149534039393,5.535959202857027,13.75582671635742
1211,12.145208835601808,-12.688790779050613,1.6839699249372881,4.423941542894254,13.542984343103951
1212,12.163618087768556,-12.679279351119007,1.2204779112457016,3.3204063242078976,13.163540152762527
1213,12.165002822875977,-12.340516926652418,0.8295842759520933,2.265046499255924,12.574060749483172
1214,12.175268173217772,-11.669801048018307,0.5241402060695932,1.2994206669728339,11.753615338511976
1215,12.18512201309204,-10.691056975147164,0.31494671771304916,0.4615266096202513,10.705647924914615
1216,12.19532585144043,-9.452621891207206,0.20939768102228845,-0.21900275409120765,9.457476947539801
1217,12.20519208908081,-8.02309093594135,0.20966936799248645,-0.7236995955575384,8.058392551549517
1218,12.215193033218384,-6.4855689048505045,0.3106476138694047,-1.0461917103923652,6.57674866894427
1219,12.225280046463013,-4.930569362429156,0.4979497497505768,-1.1920828076660788,5.097011831586696
1220,12.23603582382202,-3.4480127198804285,0.7467189858630121,-1.1783190267349324,3.7195183410047967
1221,12.245480060577393,-2.1189941535996564,1.0221806992552334,-1.0319442935917198,2.5690267865469902
1222,12.26239800453186,-1.007958303298284,1.2829363946690862,-0.7876996586372116,1.8117330063151271
1223,12.265367984771729,-0.15588292101300844,1.4873671322082342,-0.4840553562861585,1.5719001428163988
1224,12.275578022003174,0.4245088193492957,1.6022098055614344,-0.15825355610058225,1.6650309867269808
1225,12.285343170166016,0.7498262124041629,1.6105901264282254,0.15784193707791805,1.783578980941682
1226,12.295469999313354,0.8617129412256416,1.5157724217535553,0.43948412048055496,1.7981272256931518
1227,12.30582594871521,0.8169605541408813,1.3383868694002907,0.6686638266626589,1.7046452042265092
1228,12.315943002700806,0.6744783406385033,1.1086311887019853,0.8332656745386617,1.5421789224722329
1229,12.326496124267578,0.48377548294716244,0.8576991308207106,0.9267713257101088,1.352254268645448
1230,12.33591103553772,0.2792025704555462,0.6119989701941133,0.9483348554337474,1.162684743556131
1231,12.345770835876465,0.08093468011686573,0.39092011414672584,0.9027598449039603,0.9870887982654504
1232,12.363399982452393,-0.09989727094738596,0.20688746593161678,0.80008872802202,0.8324204832956931
1233,12.365448951721191,-0.2557974422567841,0.06623156648073913,0.6545968921867217,0.7059150395933776
1234,12.37562608718872,-0.3799039884867335,-0.029887053919354804,0.4831355415057952,0.6153374910780299
1235,12.387467861175535,-0.46595256611777053,-0.08458871424335587,0.3030685537320646,0.5622433571953739
1236,12.395720958709717,-0.5100685651170271,-0.10421500383053649,0.13020150426889104,0.5366406058600335
1237,12.40560817718506,-0.5126421518993147,-0.09698131419472342,-0.02298338750521202,0.5222409284115048
1238,12.415742874145508,-0.4789789125554136,-0.07149128038845755,-0.1485392825808716,0.5065527813703006
1239,12.425660133361816,-0.41835211689444846,-0.03542211190291403,-0.24347706228801186,0.485339365374507
1240,12.43570613861084,-0.3418998527309938,0.0053333868497067605,-0.3093078035791623,0.46108054791731296
1241,12.446669101715088,-0.2602317350357277,0.046911871285630444,-0.3508542014529407,0.4393403581102076
1242,12.464209079742432,-0.18160484859429063,0.0871690254961296,-0.37465257429668664,0.42537431923663943
1243,12.465702056884766,-0.11115647680366855,0.12508389478982496,-0.38733135725553297,0.4219328422683044
1244,12.476958990097046,-0.051137423065147625,0.16019088250484234,-0.3942900710690848,0.4286499912738691
1245,12.486230850219728,-0.0016787633300158068,0.19220486216067412,-0.3988564482793749,0.4427550040581807
1246,12.49652099609375,0.03843288958658139,0.2208218774252174,-0.4019700310310325,0.46023830175101826
1247,12.505771160125732,0.07122380684981576,0.2455959879911885,-0.40235753087281545,0.47674081284238345
1248,12.516666889190674,0.09916501098992499,0.2658376851911215,-0.3970995406500777,0.4880485830907702
1249,12.526299953460692,0.12478967740493639,0.2805797977319096,-0.382428918721284,0.4904583207128184
1250,12.536195993423462,0.15027495788430761,0.2886982182726261,-0.35457952732470976,0.4813064152894016
1251,12.546242952346802,0.17713479950771796,0.28920877021317054,-0.3105466080123302,0.45984524104617824
1252,12.564024925231934,0.20615211457003835,0.2816580167145005,-0.2486713287319315,0.42856430375679727
1253,12.5658860206604,0.237517669764615,0.26647772758393773,-0.1689754712503538,0.3949401633576803
1254,12.577494144439695,0.27101480442843334,0.24519021308745467,-0.07321841628932937,0.37273073564863274
1255,12.586030960083008,0.30609303748248434,0.22038938069024913,0.03524461481922113,0.37882266245572
1256,12.596045970916748,0.34177527733384655,0.1954721192918564,0.15166884296156338,0.4219278700706755
1257,12.605979919433594,0.37646487871766604,0.17418013934942506,0.27012648612502377,0.49500792353046713
1258,12.616232872009276,0.407804818390093,0.16010713778669003,0.38378377821652127,0.5824337334792439
1259,12.627561092376707,0.43276603895509724,0.15635360407192758,0.48538958092857903,0.6688317720123554
1260,12.636518001556396,0.4480967462476818,0.16543338904625454,0.5680623999138726,0.742195250863947
1261,12.646326065063477,0.45114111786129113,0.1894064157206495,0.6263572635004255,0.7948122546117544
1262,12.663311004638672,0.4408733678029298,0.23011490410711793,0.6574771000684274,0.8243775425401364
1263,12.66618585586548,0.41887842181385765,0.28937034261457467,0.6624116185764486,0.8354540561103374
1264,12.677392959594728,0.38999121867418696,0.3689872519581746,0.6468388870566245,0.8406219653085896
1265,12.68670892715454,0.3624043583965917,0.4706462613460168,0.6215913323383474,0.8597793942297002
1266,12.69688892364502,0.34722776935765753,0.5955735174309945,0.6022519406292827,0.9154137526113308
1267,12.706712007522585,0.3575605274421604,0.7439930499362796,0.6075489632036476,1.0249345988052265
1268,12.71646213531494,0.4070700372930812,0.9144467877906196,0.656811699734152,1.1972136617454876
1269,12.727864027023315,0.5080918425874655,1.1032756616134332,0.7671434514170973,1.4366222819741523
1270,12.73666000366211,0.669454254451231,1.3044945250747542,0.9509319355307335,1.7476116590264237
1271,12.746721029281616,0.8943969558373709,1.510060135852766,1.2142200671410726,2.1341410215707164
1272,12.763070106506348,1.1789748337646355,1.7104687504487104,1.5562718780667448,2.595701670718982
1273,12.766479015350342,1.5112808189850084,1.8957290991327316,1.9702847508541348,3.1240647449403056
1274,12.778348922729492,1.871712335719851,2.056805170199713,2.4449051458616515,3.7028793861138545
1275,12.786406993865969,2.2343434751352045,2.187492240496057,2.9661402647223696,4.309918924657054
1276,12.796588897705078,2.569287227893897,2.2863435768790055,3.519264910239262,4.920754954211391
1277,12.80643105506897,2.8457543313921674,2.3578607665159796,4.090288422279988,5.512556982594404
1278,12.817495822906494,3.035354882144969,2.4121649696706333,4.666549930281543,6.067009753847286
1279,12.826491832733154,3.115139888381564,2.4630317805007045,5.23623205171499,6.571814679017489
1280,12.837437152862549,3.07002595450767,2.5250150684968733,5.787007603854428,7.020699214790216
1281,12.846808910369871,2.8944986230003273,2.6106687411603087,6.304421535187728,7.412114708230111
1282,12.863998889923096,2.5936383020783227,2.7284991565491694,6.770776059635483,7.74693976606442
1283,12.86647605895996,2.1834899380045383,2.8817796062850642,7.165159957820166,8.025696183491938
1284,12.878484964370728,1.6907915008319367,3.0680918311578447,7.464929490220609,8.246037574354625
1285,12.887146949768066,1.1523247869312303,3.279273518425376,7.648619306299235,8.401360872853603
1286,12.897433042526243,0.6145065132232737,3.5012898744892285,7.699871303577032,8.480841180663843
1287,12.9067120552063,0.1335150330249615,3.7138788392216773,7.6113111541110445,8.470110966283583
1288,12.917590141296388,-0.22522297360156618,3.8908027938796663,7.386826342673451,8.35190248898502
1289,12.927260875701904,-0.39070628438017707,4.002129421093343,7.041152250825852,8.108484218591355
1290,12.936998844146729,-0.2949284263973341,4.018993580241311,6.596845909847287,7.7303084112464076
1291,12.947319984436035,0.11470978065783315,3.9193793842997495,6.079787733580725,7.234536058189986
1292,12.96556305885315,0.8626511231522497,3.692539823645744,5.514890514738801,6.692759871610633
1293,12.966809034347534,1.9360652068156836,3.340564424167416,4.923442852902111,6.256836955111433
1294,12.979276180267334,3.2820997715123306,2.877213300217321,4.322339788716163,6.142732008986525
1295,12.986861944198608,4.812343089555074,2.3250875792286525,3.724179727874191,6.514153276380662
1296,12.99714994430542,6.413557451123976,1.7122964969495909,3.136995363503937,7.3420990447540895
1297,13.006957054138184,7.962505712754147,1.0695119935803232,2.5633324044746857,8.433031847792616
1298,13.0187349319458,9.342113791208984,0.4278981017737289,1.9995573399532127,9.563284813763492
1299,13.02749490737915,10.456170754329403,-0.18217519078111388,1.4366935219874177,10.555983275846465
1300,13.037250995635986,11.240174078977152,-0.7322743372248046,0.8634410345592226,11.297046934966172
1301,13.047595024108888,11.666771543857363,-1.1976136278744338,0.2707888935612706,11.73120468166448
1302,13.06660294532776,11.745403658989863,-1.559427943830947,-0.343438942323262,11.853449832505193
1303,13.068753004074097,11.516909570956491,-1.8071877943204961,-0.9720171532400633,11.698288384875932
1304,13.079741954803469,11.044696875187114,-1.9394333145334692,-1.5988253332111473,11.327090230611216
1305,13.087066173553469,10.404361122629838,-1.9625474745816225,-2.2020826556439808,10.814411263788982
1306,13.09833288192749,9.673380784814192,-1.8878579779946874,-2.7589429473447002,10.234748152240664
1307,13.107090950012209,8.922009823927006,-1.7282036042977715,-3.2499762838139206,9.651491741772913
1308,13.117270946502686,8.206080277643816,-1.495105431078793,-3.662450461855273,9.109809940867043
1309,13.12804889678955,7.562203179377569,-1.1971887899883886,-3.9917723042486393,8.634490376045859
1310,13.13769817352295,7.0057041360989265,-0.8399592972531452,-4.240982906074459,8.232336124892578
1311,13.14780616760254,6.531410273306485,-0.42667695205141626,-4.418800490794312,7.897288848529565
1312,13.165360927581789,6.117057386533965,0.040118481266772255,-4.537059378370477,7.616095349032101
1313,13.16725206375122,5.728661165465726,0.5569471457748237,-4.608300240908609,7.373206899461062
1314,13.180156946182253,5.326833180782362,1.1180288635765012,-4.643898245135599,7.154783797351782
1315,13.187389850616457,4.8728787468477845,1.7144224126217658,-4.652803720540105,6.9521776410167
1316,13.197582960128784,4.333678254748328,2.3335989414859277,-4.640874993687288,6.764922168245157
1317,13.209418058395386,3.684780892194263,2.9592710562679074,-4.610821699021531,6.602618582661936
1318,13.217965126037598,2.911669931492686,3.5714124727422285,-4.56277151838745,6.484727655763586
1319,13.227854013442991,2.0096075479049933,4.146626187936845,-4.495347057285528,6.4374821478995985
1320,13.238017082214355,0.9827013874760882,4.65912300637859,-4.4069918405456825,6.488043332789164
1321,13.248056888580322,-0.15719299032628928,5.082429540707578,-4.297240507373853,6.657482681215134
1322,13.266799926757812,-1.391357101032998,5.391666501644487,-4.167664448808403,6.955240413200086
1323,13.269134044647217,-2.694824390448307,5.56604613209206,-4.0222441620973175,7.377085883969227
1324,13.280563831329346,-4.036938737706244,5.591225184214666,-3.8669368278414016,7.906445083797505
1325,13.287518978118896,-5.382213295871529,5.461234677500087,-3.7083305472322112,8.517336415366092
1326,13.297780990600586,-6.691827825216312,5.179786187500537,-3.551552146922232,9.177378015689914
1327,13.30988883972168,-7.92592601231162,4.7608056518819275,-3.3979383159598457,9.850459806866729
1328,13.317808151245115,-9.04658114462057,4.228088533191068,-3.2432211476909307,10.499326000440975
1329,13.327582836151125,-10.020972301723113,3.61401195531604,-3.0769578673725158,11.08822068695671
1330,13.338335990905762,-10.824074567741683,2.957298951024176,-2.883615459359005,11.585397940995176
1331,13.348333835601808,-11.440147808397041,2.299953271576634,-2.6452517821834105,11.965121141073006
1332,13.367373943328856,-11.862585115693095,1.6836822382131862,-2.3453335633877814,12.208861577964226
1333,13.369564056396484,-12.09219150419231,1.1463141190433268,-1.9730022103048206,12.305603160976974
1334,13.38099193572998,-12.13450601522872,0.718764429861163,-1.5269661091768423,12.251305401377858
1335,13.387771129608154,-11.997141286699208,0.4229592047603609,-1.0180798201069046,12.047687747531604
1336,13.397909164428713,-11.68816620848704,0.270845276109105,-0.4697229705290872,11.700736137092042
1337,13.409304141998293,-11.21623122218456,0.2643152935647969,0.08442924190965487,11.219662815825144
1338,13.418686866760254,-10.592427069051501,0.3956465246444735,0.604853276075095,10.617056789488176
1339,13.428336143493652,-9.833000419032752,0.64800543298312,1.051810751406949,9.910303433227924
1340,13.43814992904663,-8.96154019818632,0.9957889338925889,1.3909813511647617,9.12335615022566
1341,13.448627948760986,-8.009530084273926,1.4049987297834472,1.598155478073806,8.28738164522906
1342,13.468039989471436,-7.015045144749994,1.8342963846800717,1.6624119476247423,7.439026488280327
1343,13.470371007919312,-6.020124177315319,2.2376701996359407,1.587417048545336,6.615811055240891
1344,13.48148488998413,-5.0674718990370815,2.5694308609736445,1.3904632644585206,5.849327695270876
1345,13.487958908081056,-4.19680136360063,2.791189452399405,1.0989760818126695,5.158646011610229
1346,13.498126029968262,-3.440843774912345,2.8789638270373863,0.7450525904103191,4.547850257343564
1347,13.50955295562744,-2.821258207979708,2.827838825814563,0.3599885299811084,4.01070592821203
1348,13.518186092376707,-2.345333152078636,2.6523452938080396,-0.028940246479521075,3.5406723499486734
1349,13.529023170471191,-2.004837009945385,2.382320881029009,-0.39902083145736467,3.139114817997346
1350,13.538815021514893,-1.777912680164146,2.0555525680639333,-0.7314964590851372,2.8144905272565373
1351,13.54858684539795,-1.633631642049141,1.7094756096720425,-1.0110227668016678,2.571619380265881
1352,13.567116975784302,-1.5377590461091233,1.3743412507170032,-1.2250776963317207,2.398818900909832
1353,13.569383144378662,-1.4582250774387657,1.0694754479136082,-1.3631612478340216,2.264598573204027
1354,13.581505060195925,-1.369403217930463,0.802916354893428,-1.416496878650295,2.127534548123646
1355,13.588194847106934,-1.254771482694419,0.5736190680803761,-1.3791467129120691,1.9507782971892822
1356,13.598945140838625,-1.107738963460055,0.37506671846815326,-1.2505325023712714,1.7121892985172462
1357,13.60997200012207,-0.9306992814981813,0.19928110900672658,-1.0381802356799053,1.4084503238469455
1358,13.618376970291138,-0.7327713725564673,0.04033181689823089,-0.759106520486566,1.0558519069158434
1359,13.628705978393556,-0.5269412687669519,-0.103535510825963,-0.43887156095403307,0.6935379944501583
1360,13.638689994812012,-0.3272859463177717,-0.22967292450549337,-0.10838957941624462,0.4142632542647921
1361,13.648788928985596,-0.14671814114653955,-0.3324687999447652,0.20056974582303116,0.4150782321656046
1362,13.668001174926758,0.004598915070947438,-0.40558193590920794,0.45996483346903,0.6132581061705448
1363,13.670167922973633,0.12020483880697029,-0.4440492016076084,0.6491227496581116,0.795606209656933
1364,13.68213987350464,0.19774055499357457,-0.4457454662605573,0.7568607287953946,0.9003491048330666
1365,13.688229084014893,0.23882974483281721,-0.4120906503995355,0.7820031728880124,0.9156349237390081
1366,13.699023962020874,0.24846086901655662,-0.34808643602674993,0.7325575332448597,0.8482555687362512
1367,13.708384037017822,0.23395221545278772,-0.2617782560934897,0.6239183002845079,0.7159158748823256
1368,13.718662023544312,0.20371145714784317,-0.16321991197307725,0.47640475567887297,0.5432316160453506
1369,13.72848892211914,0.16607376077759836,-0.06306296565823932,0.31239430148690656,0.35937116086007725
1370,13.740113973617554,0.12843710392254687,0.02899321463791085,0.15337921758672912,0.20214321790890802
1371,13.748955965042114,0.09676685469131517,0.10555695386534533,0.01736909979193387,0.14424902184681496
1372,13.77064299583435,0.075414682658724,0.1623850210013435,-0.082934571999706,0.19731804945036638
1373,13.771830081939695,0.06714011924460411,0.19854250972355159,-0.140894863852207,0.25254363274380565
1374,13.7825608253479,0.07324450497424523,0.21594480998241375,-0.1555771529975816,0.2760455922526131
1375,13.788617134094238,0.09379123707254905,0.21851825468862637,-0.13052959527730823,0.27126555075611863
1376,13.798808097839355,0.12791571990858255,0.21126211118187269,-0.07220972117531313,0.2573098421222347
1377,13.809319019317629,0.1741823547612915,0.19943846679256558,0.011427081928752728,0.2650391913437787
1378,13.819416999816896,0.2308789764451149,0.18799790736679173,0.11188720621608962,0.3180677001103358
1379,13.829313039779665,0.2961314219205011,0.18122332847942996,0.22064313920539552,0.41136250280285974
1380,13.839064121246338,0.36778850789609985,0.1825217348743956,0.32934460233027973,0.5263558086751667
1381,13.849400043487549,0.4431338890714668,0.19432378688706417,0.4298975751746782,0.647256751942226
1382,13.868358135223389,0.5185769687007604,0.2180915478287844,0.5144963019589013,0.76235978411155
1383,13.870532035827637,0.5895126444370239,0.25443506161991425,0.575671564070759,0.8623572973033489
1384,13.883103847503662,0.650499987294604,0.3033010875304034,0.606473636740967,0.9396552853196857
1385,13.888805866241457,0.6958182546709741,0.3641563655122694,0.6009368691469646,0.9888872649481447
1386,13.90010905265808,0.7203363877802059,0.43610203981935247,0.5548727293040803,1.0084409979865925
1387,13.908983945846558,0.7204894925980863,0.5179516534998309,0.46683699417111474,1.00265437885354
1388,13.91982889175415,0.6950897654185632,0.6083960451339844,0.3389691898784035,0.9839693295073416
1389,13.930089950561523,0.6458108070744635,0.7063577520702767,0.177426326082504,0.9733925074866149
1390,13.939227104187012,0.5773569855616368,0.8115192883246188,-0.00770410103280828,0.9959738938709386
1391,13.949321031570436,0.4973992538825104,0.924849327594325,-0.20296872530767907,1.069555328146972
1392,13.968729972839355,0.4163595308944509,1.0488488034785657,-0.39252600132616383,1.1947868986736394
1393,13.97088098526001,0.3470784473527256,1.1874073662333473,-0.5595394054249899,1.3577496264869102
1394,13.983572959899902,0.3042770901066603,1.3454956480584908,-0.6880160346737719,1.5415281867278119
1395,13.989197015762327,0.30369976699471873,1.528924590906442,-0.765066854446684,1.7364248457460003
1396,13.999188899993896,0.3610178661494372,1.7440665962740636,-0.7833042557842885,1.9456792513278924
1397,14.010889053344728,0.4907283418214264,1.9972993846318075,-0.7426493703800469,2.186674924318492
1398,14.01928997039795,0.7051993554551234,2.294127552120988,-0.65071954380565,2.4867173705561294
1399,14.030148983001707,1.0138809541684624,2.6381072420423677,-0.5214999421045555,2.8739392128848156
1400,14.039187908172607,1.4226679313370008,3.029706824092004,-0.37268491741618387,3.3677888191621914
1401,14.050015926361084,1.9333743315173995,3.4652064140854715,-0.222403558072795,3.974299327005061
1402,14.067861080169678,2.543181662722311,3.935769691662506,-0.0860677508228192,4.686732731140948
1403,14.069269180297852,3.2438671619418953,4.42691396106929,0.0260101902489581,5.488252719493878
1404,14.0834641456604,4.020721352792338,4.91867747185841,0.10978920714426177,6.353868265786839
1405,14.089233875274658,4.851305812670786,5.386736784689116,0.16738889565112663,7.251215092518184
1406,14.099939823150637,5.704475216929779,5.804541250215495,0.206066613084148,8.141019596773324
1407,14.109357833862305,6.540287219443052,6.146270443911659,0.23687146382278107,8.978201678113814
1408,14.119467973709106,7.311444274247043,6.390186696875091,0.2733194407108901,9.714237330486101
1409,14.130553960800173,7.966655788615708,6.521847728243519,0.33000052675376185,10.30101949286269
1410,14.140012979507446,8.455830657403812,6.536664362119057,0.4209271141624009,10.696084925108094
1411,14.149919033050535,8.736543621355649,6.441302555788718,0.5576381563850301,10.868695109189366
1412,14.169550895690918,8.78090999010013,6.253381839752048,0.7472182969705762,10.805901159612214
1413,14.171951055526732,8.581766578044869,5.999038327610273,0.9904733392172246,10.517424394398333
1414,14.18465805053711,8.15682982079424,5.708443751523031,1.280651942943757,10.037941631064914
1415,14.190546989440918,7.549444011848206,5.4101305212933894,1.6031739806816536,9.42516758247808
1416,14.19959306716919,6.82491192463577,5.125471943301706,1.9367382849603951,8.752190617499132
1417,14.21025800704956,6.062416195194415,4.864614373839073,2.256069075678626,8.093652500827464
1418,14.219575881958008,5.344011355995427,4.624711008460982,2.5362341635798558,7.508587950959747
1419,14.230098009109495,4.743270252267473,4.390779154597157,2.7575965365750186,7.027225122978557
1420,14.239861965179443,4.3160712339704554,4.139027997975708,2.909663616419111,6.650275635298674
1421,14.25006103515625,4.094919475240743,3.8420623004562917,2.9924849917306355,6.3627647021579
1422,14.26866602897644,4.087133407335876,3.4749115868176674,3.015600684646391,6.154146367677684
1423,14.270854949951172,4.276751152905838,3.0204412418231015,2.995571621995633,6.032173328220339
1424,14.284739017486572,4.629738472339544,2.472740698198788,2.9532041260931527,6.022486155497839
1425,14.289753913879396,5.101517700198293,1.8378179618819268,2.9109980736001777,6.15442665818322
1426,14.299885034561155,5.645131092622819,1.1319805867490462,2.890706895389116,6.442442972718021
1427,14.30980396270752,6.218029288949031,0.37901250281770743,2.910771662145404,6.876054856141627
1428,14.320834159851074,6.78584644293357,-0.3925868600042946,2.9838474576855982,7.423286471668666
1429,14.330172061920166,7.32250727160309,-1.1513924124181658,3.1151028559150777,8.040440475060091
1430,14.340266942977903,7.807271542344952,-1.8637459742848206,3.301890033740078,8.679257790127233
1431,14.35050106048584,8.22041718695701,-2.4941590791960215,3.5347699069707335,9.289278041655338
1432,14.36972188949585,8.539765643910446,-3.0067085429171176,3.7992091432897004,9.818446090365828
1433,14.371923923492432,8.739859438275646,-3.3682154385144787,4.077153604041052,10.215341391848249
1434,14.38537311553955,8.7943550494599,-3.552786618187684,4.348311599198024,10.434116505677633
1435,14.389951944351196,8.680674651167946,-3.5462644647861827,4.591677265230188,10.440958009764561
1436,14.400168895721436,8.385017582668382,-3.3489765110026752,4.78780669192372,10.219944053278136
1437,14.411249160766602,7.905927077864426,-2.975866096842494,4.921739342686786,9.776654854509157
1438,14.420062065124512,7.255483143295704,-2.454078732815013,4.985828763380042,9.139093309910498
1439,14.430674076080322,6.458202132394499,-1.8188462429704562,4.981396291125794,8.356487626250303
1440,14.440218925476074,5.548356162229518,-1.1087985888851881,4.918197980895415,7.496823446830517
1441,14.45055103302002,4.566539360130728,-0.36165735174485,4.811444413105698,6.643348185072064
1442,14.475751876831056,3.556072737153505,0.3891457976545925,4.677439101085825,5.888592727309745
1443,14.476931095123293,2.559539029317064,1.116719676256644,4.5298388357913675,5.32144179298992
1444,14.48020601272583,1.615533093165615,1.8017871066387006,4.377948301596685,5.002281008121797
1445,14.491175174713137,0.7555878390065559,2.4326710973259313,4.226813410522861,4.935053521249333
1446,14.500267028808594,0.001199572225955247,3.0044726187513504,4.077963655425813,5.065238862163755
1447,14.510977983474731,-0.6389847196010938,3.5177854427781607,3.9300594729620304,5.313048405042459
1448,14.520841121673584,-1.1714835960385344,3.9770987423567625,3.779408284834349,5.610135043447496
1449,14.531888008117676,-1.6192454442733397,4.388791227618688,3.620533531082214,5.915378880351906
1450,14.540825843811035,-2.0212609269004576,4.758688457121269,3.446850269846673,6.213806269050861
1451,14.55099391937256,-2.4300703201610308,5.089556086199159,3.251417721398129,6.510033802870477
1452,14.571820974349976,-2.9070200092641305,5.3792188825518,3.027793145861517,6.823070603092852
1453,14.5730140209198,-3.5155196806500317,5.619896133579429,2.771046432819739,7.184762314099313
1454,14.586122035980225,-4.312941729530152,5.79896897885215,2.4789301181614873,7.640327356255111
1455,14.590406894683838,-5.34211860834681,5.901088172393713,2.1530270015158917,8.246004978974167
1456,14.600503921508787,-6.623585560546983,5.911394681784919,1.7994354632616631,9.058390626825785
1457,14.611489057540894,-8.149723004710586,5.819509495261413,1.4284047353412228,10.115582825862873
1458,14.621294975280762,-9.881721640320604,5.623714071094948,1.0525641521316873,11.418514519172998
1459,14.632501125335692,-11.74985952165499,5.334417843229544,0.6840199724615114,12.92219392469864
1460,14.640809059143066,-13.657127775848934,4.97580218871941,0.3313906467204809,14.539104727178463
1461,14.651103973388672,-15.485990503792987,4.584701702442587,-0.0016960601582495438,16.150399204371592
1462,14.676764965057371,-17.107994007207253,4.206384514111622,-0.31568350854375093,17.62035146382625
1463,14.67795205116272,-18.39574210183897,3.887676760080223,-0.6122320343224663,18.8120223828298
1464,14.68056583404541,-19.23619980277735,3.668558512694225,-0.8910131798916306,19.603153034656778
1465,14.691140174865724,-19.54360550322093,3.5738185565902634,-1.1476188021111,19.90079707086918
1466,14.700899124145508,-19.270039113322152,3.6065040630379275,-1.3732434785547496,19.65266080298207
1467,14.711042881011965,-18.412213697953145,3.744694034609526,-1.5561685736948294,18.853487934641937
1468,14.720849990844728,-17.01395585526127,3.9428064527574813,-1.6846722166842032,17.545898011967154
1469,14.730669021606444,-15.164426042897219,4.138330984112715,-1.7504174157734302,15.816117149098563
1470,14.741495132446287,-12.991894806569412,4.263811811927227,-1.750798954730219,13.785308078254177
1471,14.751384973526,-10.652101626947951,4.261517085370744,-1.6889214736217055,11.596562106236247
1472,14.77535104751587,-8.310507900563678,4.0960674733330835,-1.5713696345064172,9.397420541812386
1473,14.776485919952393,-6.12039225751093,3.7607451070521147,-1.4059131598820926,7.319767548163385
1474,14.780550956726074,-4.202065950987716,3.2761876509653405,-1.201435897828748,5.462070303225661
1475,14.791897058486938,-2.629338255496289,2.6833619135940316,-0.9698221051056107,3.8800007392647196
1476,14.800929069519045,-1.4266531740499295,2.0342386229944536,-0.7272357676708642,2.5888873896114024
1477,14.811334133148192,-0.5759490984458795,1.3830263736171682,-0.49291673818328924,1.5771639816146352
1478,14.821009159088137,-0.02925727828899839,0.7790835009414917,-0.2857482951097067,0.8303488290653724
1479,14.833373069763184,0.27731726697008674,0.26135275236423744,-0.119923389853856,0.3994893580086467
1480,14.84130597114563,0.41133614547073727,-0.14579214746977529,-0.0011552645768944502,0.4364104827691641
1481,14.85149598121643,0.4349933943488983,-0.43457469769137835,0.07514304558494127,0.6194520952426503
1482,14.876273155212402,0.3993536545443463,-0.612648102521663,0.12261570623861985,0.7415225218007304
1483,14.877228021621704,0.3412226355597785,-0.6985844302952396,0.15940098853177914,0.7936383108281722
1484,14.880800008773804,0.28245250300582536,-0.7154447791688984,0.2013748087639561,0.7951053150992071
1485,14.891263961791992,0.23199519128915314,-0.684746008249548,0.25602488978075305,0.7669730169844488
1486,14.901137828826904,0.19031818844744477,-0.6228783832634143,0.32030403257686973,0.7258051849330964
1487,14.911940097808838,0.15446999531395095,-0.5407883794728371,0.38368783479625945,0.6808299386746964
1488,14.92116117477417,0.12179740003621954,-0.4459292314198457,0.4341538020024226,0.6341742740630811
1489,14.933763027191162,0.09144987978583165,-0.3443730027383994,0.46316084316708567,0.5843576064116479
1490,14.941437005996704,0.0641626602354112,-0.2416993863087205,0.46736237522610113,0.5300594590114206
1491,14.951580047607422,0.04131463920723807,-0.14289520655967147,0.4477042303830457,0.47176796984686303
1492,14.976035118103027,0.02397884985975259,-0.05212887997504671,0.40786968920028494,0.41188601425198507
1493,14.97705101966858,0.012299004061236806,0.027314661238677575,0.35319729579758186,0.3544653522958296
1494,14.981897830963137,0.005359636845037485,0.09319580783268212,0.2898854238239667,0.30454514156409995
1495,14.992110013961792,0.0015857793189951268,0.14470269184560972,0.22399638348793427,0.2666753898264475
1496,15.001335144042969,-0.000533325565667892,0.18280730922263788,0.16037036163520157,0.24318192702663055
1497,15.011269092559814,-0.001791455371811765,0.21026228136693842,0.10199960199888466,0.23370356241595816
1498,15.021949052810667,-0.0020128322535115013,0.2311410599266609,0.0501363703756383,0.2365246217883969
1499,15.033813953399658,-0.0002458458595133901,0.25010367525038374,0.004849174630913649,0.25015080113510957
1500,15.041450023651125,0.004803025189035622,0.27165424701053753,-0.03443133750927967,0.2738697061971378
1501,15.051782131195068,0.014341775642751691,0.2995449792992183,-0.06855186423729956,0.30762353492924643
1502,15.078115940093994,0.02920878825253823,0.3363369432112054,-0.09834815266487217,0.3516362492867199
1503,15.079288959503174,0.049760164129715116,0.3830834547963584,-0.12432158972639597,0.4058138304013653
1504,15.08286714553833,0.07589357104740206,0.43914968998589765,-0.1463441413324334,0.46907237399293117
1505,15.092612028121948,0.10712650274996986,0.502221153689774,-0.16355419960805567,0.5389361288820399
1506,15.101487159729004,0.14262556938958978,0.5685258098553485,-0.17454965782819226,0.6115809288747676
1507,15.111467838287354,0.18113345692604552,0.6332356130733913,-0.17783212324752248,0.6822176595054802
1508,15.12159299850464,0.22083993625778348,0.6909831965329872,-0.17233271402538197,0.7456048683187635
1509,15.1349139213562,0.2593019020154845,0.7364412732881372,-0.15782792166906812,0.796550612484529
1510,15.142016887664797,0.2935088428473727,0.7649248231371701,-0.13510620484151067,0.8303680584341566
1511,15.152001857757568,0.32016233067847644,0.7729689801213501,-0.10583794454411308,0.8433188203287276
1512,15.177736043930054,0.3361932150339883,0.7588452286113847,-0.07221629437819803,0.8331189302823894
1513,15.178905010223389,0.3394616983951666,0.7230140582623633,-0.03653060468802252,0.7995736727789476
1514,15.183356046676636,0.3295133214108391,0.6685293478098292,-0.0008491801778431488,0.7453262634425363
1515,15.191745042800903,0.3082388722497214,0.601388211091449,0.03311310238384945,0.6765910584356231
1516,15.201921939849854,0.2803186429765873,0.5307809603932914,0.06403429075756872,0.6036616269973477
1517,15.211679935455322,0.2534211871503036,0.469167209715279,0.09111353919643396,0.5409638119075895
1518,15.222929954528809,0.23822375708460053,0.43209231934558795,0.114390139887089,0.5064972210983395
1519,15.234979152679443,0.24832563999562957,0.4376457852932072,0.1351797501504338,0.5210307301060857
1520,15.24220085144043,0.3000035614531617,0.5054538537548721,0.15642827888097957,0.6082397073472745
1521,15.25285291671753,0.4116182547906578,0.6551293770881178,0.18276837626129347,0.7950021180864626
1522,15.277659893035889,0.6024579863679389,0.9041976793740764,0.2201298605671177,1.1085965110161926
1523,15.27877712249756,0.8909163436581607,1.2656680756176608,0.27489488805948487,1.5720097991158246
1524,15.28344202041626,1.2920896478991524,1.745577369237822,0.3527865170367309,2.200225974032281
1525,15.2930109500885,1.8150916873497283,2.3409131737756095,0.4578187719367494,2.9973372096879514
1526,15.301907062530518,2.4605295846318143,3.038284706545434,0.5915965779816429,3.9541581033079436
1527,15.31293487548828,3.2185544364682936,3.8136028496581806,0.7530787440781309,5.046760044841941
1528,15.322831153869627,4.067722382672659,4.632953782480318,0.9387474197169026,6.236334889269495
1529,15.332275867462158,4.974752954788515,5.454795254538166,1.1430521124746404,7.4705773780841
1530,15.342245101928713,5.89528544321223,6.233453379860139,1.3590507760980775,8.686619049310991
1531,15.3525869846344,6.77588583867283,6.923579226217803,1.5792593995138964,9.81542859234352
1532,15.377674102783203,7.5576738234454,7.484892052974193,1.7966127340426323,10.787486268004804
1533,15.378844976425173,8.181781077504613,7.886457676770535,2.005189904170498,11.539434251274745
1534,15.382128953933716,8.596363022934836,8.109917489661969,2.200368856533071,12.021224647098444
1535,15.39264702796936,8.764338583611643,8.151185034449794,2.37838862386206,12.202957867670381
1536,15.402688026428224,8.670689094048008,8.020074969351308,2.535543283298088,12.080208260669039
1537,15.412214040756226,8.32795353597266,7.737509873445383,2.667269050950912,11.67639470595033
1538,15.422759056091309,7.778423642475295,7.330703635897563,2.7673880568881515,11.040902445750872
1539,15.432551860809326,7.091673896688897,6.827696822337781,2.827863200525807,10.242367540545896
1540,15.442645072937012,6.356786687397633,6.252948732309782,2.8395092770172585,9.35793341353941
1541,15.452636003494264,5.6700345716596345,5.624976385802764,2.793914698690981,8.461418954774413
1542,15.480923175811768,5.120417689406511,4.95593235406442,2.6862398129352365,7.6154991395605816
1543,15.482110023498535,4.77641226894864,4.25246140507398,2.517944400990205,6.872960509932003
1544,15.485120058059692,4.67688923176191,3.517322013112861,2.298357030794291,6.287073410665758
1545,15.492408037185667,4.827689377920261,2.751609810731515,2.0444165704213595,5.920944214701864
1546,15.502595901489258,5.203757882313253,1.957501003726947,1.778613389776434,5.837325746231859
1547,15.513113975524902,5.755734422091465,1.141065310515758,1.5257358905102363,6.0628688579006935
1548,15.523048877716064,6.4193864798036655,0.31421912457249834,1.3091080968031088,6.5590411223324905
1549,15.53331184387207,7.125924245532742,-0.5050022776553019,1.146730225042901,7.235248016656746
1550,15.54289698600769,7.811151318405072,-1.2938460105827616,1.0477705504352675,7.986610391428997
1551,15.553667068481444,8.42191727280666,-2.027106009929564,1.0102534206431844,8.721150228003928
1552,15.578165054321287,8.919333054972084,-2.67932467417877,1.0208250868995448,9.368850874745755
1553,15.579087018966677,9.27917184069088,-3.226457219037712,1.0569102214625608,9.88079528436771
1554,15.582545042037964,9.490418592799777,-3.647050786955366,1.0908069022824471,10.225403865239675
1555,15.592674970626833,9.552991026870986,-3.9232618056481443,1.0946556240943275,10.385080244778873
1556,15.603101015090942,9.475371475117184,-4.041957214848942,1.045009787919271,10.35432895821747
1557,15.612499952316284,9.272468334424667,-3.9958309650020345,0.9260621762863714,10.13917774122367
1558,15.623694896697998,8.963666308541075,-3.784189443364231,0.731169373253214,9.75715184295741
1559,15.632581949234009,8.57087087052741,-3.413034772975763,0.46274709713428874,9.237032462685361
1560,15.643550872802734,8.116438669977079,-2.8942825266511862,0.1307777753495214,8.618036368808328
1561,15.653317928314207,7.621096548390032,-2.2442087897327263,-0.24975367614011562,7.948582426479679
1562,15.67817211151123,7.1020862617877825,-1.4813977719717193,-0.662040758214999,7.285085215302249
1563,15.679203987121582,6.571709649199,-0.6245717849599309,-1.0906092889769259,6.690806098606209
1564,15.683491945266724,6.03625953808513,0.30919928223433224,-1.5237300477010052,6.233280570095079
1565,15.692842960357666,5.495186905696724,1.3053318829309104,-1.9545716209861494,5.9767316047068
1566,15.702968120574951,4.940398495534638,2.35115191546898,-2.3809837235651496,5.966953671361671
1567,15.712775945663452,4.355786022815329,3.433884977405209,-2.804192610092846,6.215137497200033
1568,15.722970962524414,3.717338329468264,4.537782869676325,-3.226888246266557,6.694989572953423
1569,15.73280906677246,2.9943273132070876,5.6413588665953025,-3.6512130799234015,7.356784819154027
1570,15.743043899536133,2.1519674438225933,6.715681235204389,-4.077121430366654,8.145812267055
1571,15.753664016723633,1.1556040607440654,7.724305272996869,-4.501454201634267,9.01462160187915
1572,15.77842402458191,-0.024000707517429644,8.624985456982307,-4.917815799822931,9.928537777946241
1573,15.779620170593262,-1.4051229895397497,9.372988810431309,-5.317052689120787,10.867305975037707
1574,15.782966136932371,-2.990225481151272,9.925615048002,-5.688011008927158,11.824244235760975
1575,15.79353404045105,-4.762518778661157,10.24734146556046,-6.018326461780549,12.802728054186847
1576,15.803158044815063,-6.684256968144929,10.314863944926115,-6.295134156173124,13.809577236930473
1577,15.813608169555664,-8.696797626125301,10.12127890914504,-6.505702924901008,14.845832622441506
1578,15.823644161224363,-10.722391591440973,9.678770544443635,-6.638118993555575,15.896946388058213
1579,15.833534955978394,-12.667738941402728,9.0193703055926,-6.682222845243507,16.92550598210969
1580,15.843577861785889,-14.429425044193906,8.19354629746487,-6.630935609086403,17.869298113987597
1581,15.85313892364502,-15.90135389885573,7.266499084212633,-6.481860093410139,18.645899684060844
1582,15.876172065734863,-16.984117314904243,6.31213892684179,-6.238704217200063,19.163109588683444
1583,15.87704300880432,-17.595758581577588,5.4049854218958355,-5.911891906715986,19.333262874868325
1584,15.88310694694519,-17.682684467693825,4.610820210974661,-5.517909090941986,19.08885312788207
1585,15.89374017715454,-17.22893765049514,3.977657437355327,-5.077452527623131,18.396700123224917
1586,15.903491020202637,-16.2620509850889,3.5289629581526283,-4.6130197516295635,17.268116082264697
1587,15.913569927215576,-14.854169361624871,3.260713998947464,-4.146639001764368,15.76303328099387
1588,15.92437982559204,-13.117591347700102,3.143062184393114,-3.697684401354759,13.986526108803464
1589,15.934355974197388,-11.194245954409059,3.126516915132886,-3.280099117463841,12.076642775573132
1590,15.943894863128662,-9.239316215232815,3.1517707940462314,-2.8992411658443404,10.183527021665592
1591,15.953982830047607,-7.400574717514118,3.1611960588691588,-2.5504095869655363,8.441934359695342
1592,15.978595972061155,-5.796743012395047,3.109061745167673,-2.2214641595529487,6.942866662927796
1593,15.979755878448486,-4.499737068167151,2.9679936380465106,-1.8996141243482911,5.715343711409279
1594,15.983278036117554,-3.526163541677822,2.731118738312301,-1.5792393821182962,4.7314729114147775
1595,15.993557929992676,-2.8416258183720675,2.4107287916614775,-1.2664821238432422,3.935788049247421
1596,16.003459930419922,-2.3769423730266777,2.0341337332102656,-0.9782490998989406,3.2778844382813
1597,16.014485836029053,-2.0504959324923338,1.6369794182360973,-0.7363148478022626,2.7251412330355036
1598,16.024438858032227,-1.788908618779509,1.2550522120287277,-0.5591172770045446,2.255651176646511
1599,16.033681869506836,-1.5401863453056837,0.9167742234343718,-0.4542208626062728,1.849044495691372
1600,16.044314861297607,-1.277661054454115,0.6384977629377275,-0.41408978096539845,1.4871339919607967
1601,16.053869009017944,-0.9968065446711644,0.4233609452137134,-0.41691745923875356,1.1604645385575607
1602,16.077555179595947,-0.7085635405162811,0.26345677008873775,-0.4326288032432357,0.8709991056540942
1603,16.078428030014038,-0.43209560307459915,0.1447095957244478,-0.4322544630771325,0.6280855022536619
1604,16.08400297164917,-0.18822290097148361,0.05307659622959582,-0.3972298673107239,0.4427601529057643
1605,16.09381914138794,0.006182737574550661,-0.020423594032350202,-0.3244854719222235,0.32518636337599105
1606,16.103726863861084,0.14227037027123515,-0.07819369622546606,-0.22482002471519594,0.27730697052085823
1607,16.11481809616089,0.22071665954248226,-0.11820546544518692,-0.11593501898857014,0.27591539371442364
1608,16.123826026916504,0.25021014728807833,-0.13758375236076456,-0.014626277139825051,0.28591665691694323
1609,16.134585857391357,0.24384896246313195,-0.13520473576159736,0.0677847092749722,0.28694494921186847
1610,16.144001007080078,0.2152895627473504,-0.1125643769239635,0.12587050350052523,0.2736123506563642
1611,16.154322147369385,0.17608954250580455,-0.07356870436953877,0.1583999847684033,0.24801297630798785
1612,16.1776180267334,0.13455654820611143,-0.024043251101546228,0.16704301902374835,0.21584001666337027
1613,16.178473949432373,0.09569495794199608,0.028825356360151582,0.15625332585412724,0.18548188047700562
1614,16.183922052383423,0.06188312373930552,0.07738770026612347,0.13326902412495953,0.16606929260833445
1615,16.194100856781006,0.03408842877444648,0.11491334928345438,0.10698921096379145,0.16066670495938593
1616,16.203979015350342,0.013228683087202693,0.1370791806383976,0.08573673116689406,0.16222357070382942
1617,16.214967012405396,0.0010212322144367502,0.1429162607992155,0.07508747217985845,0.16144419777256228
1618,16.224493980407715,-0.00014678100243162707,0.1348028739037787,0.07692619053427326,0.15520784499340248
1619,16.23416304588318,0.011816115347218645,0.1175949749800435,0.08991729813511698,0.1485036000451684
1620,16.24455690383911,0.03756378942485349,0.09736714241931041,0.11070602612901977,0.15214211422264454
1621,16.256072998046875,0.07569726315782943,0.0802495978693653,0.13506472108713038,0.17439195076070696
1622,16.27925705909729,0.1229876190565206,0.07158334948365125,0.15868329329189654,0.21314435937751774
1623,16.28018617630005,0.17524451604864616,0.07536977158715727,0.17775595083565462,0.2607458934129397
1624,16.284226894378662,0.22835650221665477,0.0939261262338165,0.18955032668654834,0.31128465371889613
1625,16.294747829437256,0.27907796514765365,0.12772734568207084,0.19288126259368968,0.3624940922631403
1626,16.304167985916138,0.3253680194065021,0.17548335544577426,0.18822980391239796,0.41483637156343667
1627,16.31519603729248,0.3662980243272144,0.23447342838376026,0.17735458362483267,0.46968785334176216
1628,16.324311017990112,0.40165997604166404,0.30106219575877813,0.16252996282448387,0.5276221857395831
1629,16.335069179534912,0.4314597367418707,0.37126647764599663,0.14576939762661278,0.5875755433452411
1630,16.344681978225708,0.4555047985472875,0.44126760088557165,0.12839023328710225,0.6470593242465714
1631,16.35626196861267,0.47328009903554225,0.5077977971413595,0.11105509854980117,0.7029835629932012
1632,16.379372119903564,0.4841959737466911,0.5683208717843301,0.09412510727215938,0.7525250096290507
1633,16.380234003067017,0.48807859445755336,0.6209773924261015,0.07798978259543755,0.7936725032790697
1634,16.384235858917236,0.48557935498992705,0.6644618199118113,0.06313346440291223,0.8253984822135692
1635,16.394463062286377,0.4782306560036687,0.6981333024757536,0.04989993353316702,0.8476937369911469
1636,16.404382944107056,0.4681891399990376,0.722505346728787,0.03800020855449144,0.8617766895866399
1637,16.41446805000305,0.45796269471594186,0.7399967274103654,0.025893591384125076,0.8706293496111336
1638,16.424954891204834,0.45038769748367435,0.7557080818846831,0.010371450751772858,0.879801881142095
1639,16.434823036193848,0.44894517957332947,0.7779690065563488,-0.01328938991233273,0.898311837453255
1640,16.44490385055542,0.45836548020551454,0.8184139793933237,-0.05051741924715417,0.9393893573794844
1641,16.456763982772827,0.485386883270508,0.891440394226775,-0.10622447590769385,1.0205635904695551
1642,16.479635000228882,0.5394614960741341,1.0130584414937915,-0.18354377671752242,1.1623228594500346
1643,16.480801105499268,0.6331433930536035,1.1992858960288728,-0.2828542898504208,1.385338863191238
1644,16.48456907272339,0.7819010395210413,1.464344070542187,-0.40129942154797743,1.7078389907338711
1645,16.494693994522095,1.0032000961250427,1.8189517303032765,-0.5328680689930599,2.144514912279924
1646,16.50465488433838,1.3148635045849983,2.2689384627921556,-0.668984992898486,2.706379260996241
1647,16.515685081481934,1.7328599169150602,2.8142207819490657,-0.7994993586965932,3.400270772418153
1648,16.52517795562744,2.268751140007592,3.4480290800071556,-0.913943113414322,4.227461210516094
1649,16.53493905067444,2.9270491617423393,4.156260491572495,-1.0028800127106345,5.181494609565608
1650,16.54537796974182,3.702745522885078,4.91697164658676,-1.0590749826075854,6.245684462040078
1651,16.557960033416748,4.579323930771808,5.700243382786294,-1.0781748057426495,7.390902732256492
1652,16.580018043518066,5.527637462961725,6.468842100757084,-1.0586869033803192,8.574468613614156
1653,16.58090305328369,6.506081775362231,7.180150047267341,-1.0012197035843209,9.740949423121918
1654,16.5848069190979,7.462504818053446,7.789627296197962,-0.9070824966897592,10.825436260444388
1655,16.59591293334961,8.338242002687117,8.255584989679026,-0.7765478000081087,11.75942131666719
1656,16.60561513900757,9.07446429329279,8.544496672107972,-0.6075681400936124,12.47892081210418
1657,16.614884853363037,9.620539932484125,8.635771232915747,-0.3961014389849045,12.933995118668582
1658,16.625542163848877,9.943324865527163,8.524913816802988,-0.13870821149749518,13.098209989661415
1659,16.635068893432617,10.035418976871297,8.224100208084748,0.16305866160419044,12.975825461260346
1660,16.645267963409424,9.919778291131818,7.759465554161255,0.49794407739316815,12.603938088376825
1661,16.657382011413574,9.648080573951079,7.165271559313831,0.8421063287211012,12.047228658452365
1662,16.67878293991089,9.291501960318305,6.476472571186217,1.1603713432586242,11.38521705099126
1663,16.679654121398926,8.925268691345103,5.722169575045604,1.4125620427190677,10.69574576094689
1664,16.684826850891113,8.61132745620418,4.9222329220722525,1.5629575322395237,10.041223717490421
1665,16.695129871368408,8.384770256383984,4.0880157652488265,1.5889229640804063,9.462606476814226
1666,16.70645809173584,8.248406687461028,3.2263063227769067,1.4854130815615032,8.9806301222696
1667,16.715057849884033,8.176860477858142,2.3444269045720083,1.264553698421469,8.599795395323715
1668,16.72571301460266,8.12820253521698,1.4542297847353558,0.9518556687600942,8.311948624388261
1669,16.735275983810425,8.058799525892876,0.5735200524974765,0.5811901690769101,8.100059077672187
1670,16.745574951171875,7.936525839427868,-0.2753434192369598,0.18954949904706378,7.943562513822895
1671,16.757910013198853,7.748667505327007,-1.068709310192398,-0.1882610444499398,7.824284626639035
1672,16.778960943222046,7.503113250340972,-1.7850409063709674,-0.5246122017790743,7.730349115474374
1673,16.779871940612793,7.223778749095116,-2.4068465525757428,-0.8028905554918613,7.656404050703043
1674,16.785599946975708,6.942634244713135,-2.9204402430676737,-1.0193206942412258,7.600536569670664
1675,16.795341968536377,6.690929661276175,-3.3140714978839094,-1.1822213317441008,7.559712752642299
1676,16.806600093841553,6.491672305614985,-3.5758422374897534,-1.3088830753498801,7.5260635086239915
1677,16.815325021743774,6.354586070828858,-3.6929083229296435,-1.421129845551055,7.485849721377737
1678,16.82607102394104,6.273945928561274,-3.652706168667486,-1.5409580764270405,7.421537014826364
1679,16.836164951324463,6.229050729807405,-3.4458050573861323,-1.6872105329542049,7.315827012070038
1680,16.845306873321533,6.186798325623534,-3.069133983782404,-1.8735161685766706,7.155845146889668
1681,16.85717797279358,6.105810742173359,-2.5281957713279017,-2.1072760991481205,6.936375943923512
1682,16.87824296951294,5.941643827895158,-1.8374475317672108,-2.3894246758746407,6.662484153169947
1683,16.8791561126709,5.652613973768061,-1.018927373986815,-2.7148099397905203,6.3529875443828026
1684,16.8853120803833,5.20560419143364,-0.09994268684689073,-3.073074429416524,6.0458324478320895
1685,16.89539909362793,4.580979123774241,0.8891401218861243,-3.449841550331044,5.803218642373694
1686,16.907469034194946,3.7756629344794694,1.9162659613997044,-3.8279724751787483,5.707983803441226
1687,16.916490077972412,2.803675781058122,2.9480732957832956,-4.188774291349108,5.839311954885582
1688,16.925783157348633,1.6939618957246552,3.9497212603236713,-4.51324266825391,6.232107534451532
1689,16.936038970947266,0.4859722354405767,4.884922126447798,-4.783528133692921,6.854252300645934
1690,16.94654417037964,-0.7760615500396486,5.716883560967408,-4.984717626009614,7.624463193573712
1691,16.9594988822937,-2.049036213582831,6.41046022522552,-5.1067706260720485,8.448174710023734
1692,16.979948043823242,-3.2960154742702725,6.9352345480116595,-5.146167940670701,9.243605395956195
1693,16.9808030128479,-4.489589814001305,7.268732547802311,-5.106636220436549,9.953322211067993
1694,16.985951900482178,-5.613102350964486,7.398807591839989,-4.9983638197043305,10.546701506044501
1695,16.996767044067383,-6.6597216210173205,7.324587559962133,-4.835597823714719,11.017462562029069
1696,17.006266117095947,-7.629800887057355,7.056103687723002,-4.633245175600193,11.378463063404556
1697,17.016731023788452,-8.527283855934094,6.613236781554674,-4.403574638892043,11.655082165685279
1698,17.0257568359375,-9.355965340026717,6.024530941148002,-4.15404853350638,11.877928258890831
1699,17.036386013031006,-10.116246992385344,5.325950043813879,-3.886872165671297,12.075262825811157
1700,17.04642391204834,-10.802797647179027,4.559297283600519,-3.6002554876657915,12.265784455248324
1701,17.057085037231445,-11.403342855096186,3.770029241222389,-3.2907694459528356,12.453052328524194
1702,17.080405950546265,-11.898725968824005,3.0044539260121113,-2.955806472161757,12.623122235626559
1703,17.08162784576416,-12.264375133162238,2.3065774089659783,-2.595320302835572,12.746406718161435
1704,17.085741996765137,-12.473209062409254,1.7150150456578812,-2.212632621591005,12.783503590155945
1705,17.09603214263916,-12.49969239799143,1.2603691845260645,-1.8146321935487832,12.693452269716515
1706,17.10782289505005,-12.324365784419937,0.9633027043041693,-1.4118003124427951,12.442311851521572
1707,17.11606001853943,-11.938047990981975,0.8332833719104756,-1.0182822900037718,12.010339288922133
1708,17.12615704536438,-11.345134371376059,0.8678128904076977,-0.6518919878040748,11.396935389880008
1709,17.136873960494995,-10.565727050033296,1.0520276532284876,-0.33356724129235316,10.623211255709176
1710,17.146528959274292,-9.636376650170313,1.3587966123378792,-0.08555416132345187,9.732081107973169
1711,17.156723976135254,-8.608942355623608,1.7496747307963512,0.07221919745922606,8.785241360288236
1712,17.18150305747986,-7.546826116754138,2.1772591574554774,0.1272905714205322,7.855650499151464
1713,17.182751178741455,-6.518109234997195,2.5895158979148527,0.07971149425495999,7.01410682177181
1714,17.186094999313354,-5.586131300600807,2.9360359811399652,-0.05552471904515695,6.310962936392958
1715,17.196202993392944,-4.799326747527738,3.1749558900854806,-0.2505100771496244,5.759916443168006
1716,17.20623016357422,-4.182842482052634,3.278584082499123,-0.4706753573300183,5.335430639384097
1717,17.216933012008667,-3.7342940830480793,3.236412841882079,-0.6829262567851737,4.9885577729433725
1718,17.22659397125244,-3.425169917644325,3.0553079914874886,-0.8622125739941767,4.6701291642027
1719,17.2363920211792,-3.207904758594394,2.7571879379404614,-0.9939402084276567,4.345187614276988
1720,17.246701955795288,-3.0268191419085175,2.374602059582407,-1.072405794576365,3.993798097981142
1721,17.256680011749268,-2.8300113165120946,1.9449326910153453,-1.097589325500982,3.605056109358135
1722,17.282465934753418,-2.579531130725911,1.5044734004409843,-1.0723086596168037,3.172895669338615
1723,17.283679008483887,-2.258024865490279,1.0837935624661112,-1.0004643988923432,2.69707504394416
1724,17.286241054534912,-1.8706669179944941,0.7051905044276838,-0.8865735089138267,2.1869387170933177
1725,17.297410011291504,-1.4418992113827538,0.3820981578099893,-0.7365309612695824,1.6635955622977268
1726,17.306432962417603,-1.0078420470518952,0.11990584363654964,-0.5589945900734345,1.1587052925033674
1727,17.316390991210938,-0.6067169044255387,-0.08219935199778784,-0.36631622613839393,0.7134771987364694
1728,17.327522039413452,-0.27013437843708854,-0.22878190577280813,-0.17395643475960762,0.39442944111324124
1729,17.336670875549316,-0.017297120033045225,-0.3259240400242194,0.0019841198760633984,0.3263887359558064
1730,17.347023010253906,0.14719589680002232,-0.38002092175037117,0.1482938818226429,0.4336745420113942
1731,17.35676097869873,0.23220640180511784,-0.3976298008119812,0.2575270551101007,0.5275883391876062
1732,17.381224155426025,0.25621476674410304,-0.3856665255368863,0.3287357402575689,0.5678484503281845
1733,17.382442951202393,0.24177760772700027,-0.3513143396098782,0.36585115228642595,0.5618943338769503
1734,17.386526107788086,0.20981666329535442,-0.3015895159470941,0.3749028855333079,0.5249108894915395
1735,17.39665412902832,0.17543583521615538,-0.24289666607572788,0.36172341622662807,0.4697024084623753
1736,17.406595945358276,0.14633781319076078,-0.1808214588307705,0.3310709311955608,0.4046221904762982
1737,17.416637897491455,0.12383081934164655,-0.12007838376155786,0.2869515060970477,0.33480450552072244
1738,17.42662811279297,0.10553719680985983,-0.06437220387933554,0.2332752056580869,0.26400606454698833
1739,17.43788504600525,0.08855029553406842,-0.01610461367896093,0.1741517967510108,0.19603408308894862
1740,17.44717001914978,0.0718689911308488,0.023882933914577,0.11370874359390704,0.13662073337615696
1741,17.456961154937744,0.057349548570322664,0.0562882741729866,0.055708216795014434,0.09777906702906014
1742,17.482455015182495,0.04905068999271902,0.0829741259154235,0.003228005392612517,0.09644218879206919
1743,17.48367404937744,0.051501082810519565,0.1063565527238124,-0.04153007435011478,0.12525503947336866
1744,17.486722946166992,0.06780114364711594,0.12874850493326054,-0.07733452951177916,0.16478410741699245
1745,17.496781826019287,0.0984102554506382,0.1518231886390759,-0.10389342455194389,0.20863533413956217
1746,17.507549047470093,0.14104027931626711,0.17630541496310773,-0.12163053912473715,0.2564565222073685
1747,17.51730704307556,0.1915393940604207,0.20193923101980182,-0.13129188903182445,0.3077407230566779
1748,17.527246952056885,0.24526867373789052,0.22770659307312877,-0.1335419797368417,0.3603338385416367
1749,17.537353992462158,0.2983616637628241,0.2521956892785872,-0.12873490546913186,0.41133322742050454
1750,17.54734182357788,0.34839059265461775,0.2739774049618703,-0.11693760722274663,0.45838196677319
1751,17.55704689025879,0.3942640078647446,0.29188093923812664,-0.09814847899169182,0.5002716407277998
1752,17.583454132080078,0.435540696933012,0.30515392342204906,-0.07258989647708966,0.5367344862549063
1753,17.58465003967285,0.471606035842338,0.31357744448186053,-0.04097234750698923,0.567821979136888
1754,17.58714008331299,0.5011730654797091,0.31761713266722164,-0.004684404875356581,0.5933607908980104
1755,17.59701704978943,0.5223344550232447,0.31863305791986474,0.03410707688843283,0.6127998051547238
1756,17.607887983322144,0.533074691695332,0.3190957713725563,0.07248025525895296,0.6254951044063598
1757,17.61743998527527,0.5319636606176321,0.3227141908004866,0.10695763199373254,0.6313237839678075
1758,17.627609968185425,0.5187619191677123,0.3344042146980096,0.13390738932760884,0.6315625832036731
1759,17.63731813430786,0.49481178530860404,0.36009881112424563,0.15012279448367313,0.6301164258111118
1760,17.64780902862549,0.46327505042265005,0.4064624941057364,0.15351240963570015,0.6351390331029292
1761,17.65745496749878,0.42937206040694964,0.48060000435841976,0.1437754343980281,0.6603090988194574
1762,17.682893991470337,0.400684234248601,0.5898428755227495,0.12287283139055612,0.7235746029776512
1763,17.6841139793396,0.3874340768714357,0.7416288157344963,0.09511692488335648,0.8421197620577724
1764,17.687127113342285,0.4025877822538477,0.9433810060282282,0.06680815030852655,1.0278657372938114
1765,17.6971378326416,0.46156929834161176,1.20224771847425,0.04547223148092011,1.2886091407342886
1766,17.707813024520874,0.5813994316465144,1.524597866573123,0.03886349317335677,1.6321563420762866
1767,17.717358112335205,0.7793070326022106,1.9152383768065186,0.05399774409589384,2.0684228889236302
1768,17.728436946868896,1.0710707656535274,2.3764105877252217,0.09649186142213977,2.6084153323063557
1769,17.737382888793945,1.4693378293665182,2.9066988992063907,0.1703612450448837,3.2614222512990247
1770,17.747743129730225,1.9820855930693235,3.4999987293913257,0.2782073513353187,4.031879677561184
1771,17.757532119750977,2.6113041580596312,4.144672038538215,0.4215420081875305,4.916799098764034
1772,17.77530598640442,3.3518090117786663,4.823031791332806,0.6009600377958907,5.904016622493136
1773,17.783688068389893,4.190012763446673,5.511348841205915,0.8159781197860715,6.971154373507835
1774,17.787431001663208,5.102690476332328,6.180612825631762,1.0645083225502259,8.085208900603321
1775,17.79734516143799,6.0561169214543265,6.798251113542437,1.3420858566135476,9.2029324030783
1776,17.80800485610962,7.0061612669920015,7.330867694029605,1.6411360201467413,10.27235339555104
1777,17.818814992904663,7.899932670986537,7.747770929975329,1.950677092414652,11.235747937203048
1778,17.827961921691895,8.679415650071777,8.024720260284868,2.256718194739406,12.034166705385346
1779,17.837533950805664,9.287144125668688,8.14715840427252,2.5432216741283318,12.613295071431846
1780,17.848078966140747,9.67335317492364,8.112255101963386,2.7932490944626425,12.929991685606478
1781,17.857665061950684,9.803536977250733,7.929202298743722,2.99002626496906,12.958466090704178
1782,17.875273942947388,9.665185513510108,7.617361122678823,3.117886671227807,12.694928860709872
1783,17.883538961410522,9.272482130946814,7.20230430639444,3.16318025863251,12.159680157768884
1784,17.887885093688965,8.667705027035762,6.710514110825617,3.1153323105475943,11.395850361970913
1785,17.897716999053955,7.918272647636385,6.164047376645307,2.968294435024995,10.464477704923203
1786,17.908166885375977,7.109220055410373,5.576532015553089,2.722467990777797,9.436659953476514
1787,17.918747901916504,6.332216050515475,4.951503944063811,2.3866899884283472,8.385144036887464
1788,17.927759170532227,5.673296817536622,4.2835334287367175,1.9793496405116937,7.37921272320902
1789,17.938480854034424,5.201746464323917,3.561947022001621,1.527728392174649,6.486878055498587
1790,17.94830298423767,4.962092822859682,2.7763638570878832,1.065305719812598,5.784931955199206
1791,17.95816707611084,4.970448565513298,1.9228006636623267,0.62748782946875,5.36621489606267
1792,17.975371837615967,5.215629775705384,1.0087386652567896,0.24659485847613363,5.318003072228852
1793,17.983690977096558,5.664503223367717,0.055514875635890845,-0.05305509628383832,5.665023699173889
1794,17.987985134124756,6.2698546102725805,-0.902853034013095,-0.25936378909254126,6.339833594825295
1795,17.997878074645996,6.978307466841837,-1.8238560885809847,-0.37536723393516547,7.222473724005273
1796,18.00898790359497,7.736159436882821,-2.661946461703059,-0.41986845955067076,8.19209444044501
1797,18.01795196533203,8.492330221710823,-3.373441551635873,-0.42491131696172335,9.147695344958127
1798,18.030081033706665,9.199029884224823,-3.9200104321590428,-0.4302564621803786,10.008683890619439
1799,18.038002967834476,9.811524694131874,-4.270930896979107,-0.47620040566382454,10.711378733696458
1800,18.04847502708435,10.288395999986786,-4.404798640257977,-0.5965518769986751,11.207551804730294
1801,18.05815005302429,10.593159188473047,-4.311188468059631,-0.8132952350588893,11.465723559323711
1802,18.076887130737305,10.697286474923603,-3.9921630577210427,-1.133782639484385,11.4740911134439
1803,18.086048126220703,10.583861016121013,-3.4629579539349136,-1.5505736029533936,11.24341897722677
1804,18.08815193176269,10.250608267006996,-2.751083259526735,-2.0435453020575305,10.808307284031196
1805,18.098122119903564,9.711129421371236,-1.893527918189359,-2.5836947511607047,10.225798804140435
1806,18.10870313644409,8.993746785535935,-0.9323922271591807,-3.137991192503519,9.570988728017314
1807,18.11885094642639,8.138100965203156,0.0902263765017006,-3.6745164783809243,8.929664017685667
1808,18.130588054656982,7.190140823019096,1.1369897492575889,-4.166996239950348,8.387772553456783
1809,18.138434886932373,6.196334045665767,2.178545858293638,-4.597925535768456,8.017576747037518
1810,18.1487250328064,5.19792591617819,3.1943304869080884,-4.959888542616198,7.86273969077209
1811,18.158362865448,4.225983389764569,4.170789651882054,-5.255113558947907,7.929100860012477
1812,18.17618989944458,3.297815777503856,5.0978422212494765,-5.493586438905579,8.187983645369258
1813,18.18504810333252,2.4152113744959487,5.9650599752555715,-5.6902072551878184,8.590322758714173
1814,18.1882438659668,1.5647936888151395,6.758993359959812,-5.8616012744004955,9.082452313587451
1815,18.198201179504395,0.7206148383624966,7.462415181883135,-6.02323210437596,9.61697723171129
1816,18.20936799049377,-0.1512242791601981,8.05542757999414,-6.187302713953855,10.15851845267008
1817,18.218435049057007,-1.0865895458884953,8.517785162471197,-6.3615786084448045,10.686581460255248
1818,18.22959804534912,-2.1170160127917144,8.831603500281041,-6.548906405434661,11.196747397871222
1819,18.23887586593628,-3.264214061164547,8.983795373422547,-6.747066737242593,11.6998539437652
1820,18.24903702735901,-4.536128417184047,8.967911807281325,-6.94878543893331,12.218245466379043
1821,18.259230136871334,-5.924693234954166,8.785339881406943,-7.142052717341121,12.77861900900996
1822,18.27494192123413,-7.404981019527427,8.44591090702038,-7.311050351324574,13.402186843515144
1823,18.284549951553345,-8.935414746932947,7.967953503221218,-7.437823232977059,14.094365334211234
1824,18.28881001472473,-10.45896936694892,7.377811272268176,-7.504500286533448,14.837104297623707
1825,18.29859685897827,-11.905491617999445,6.708863758899389,-7.495604287246976,15.58632949840096
1826,18.308629989624023,-13.195275785861494,6.000053747888177,-7.399943259906789,16.274984125716667
1827,18.31855010986328,-14.243982594997469,5.293795326350463,-7.211786154436718,16.820379563529652
1828,18.330010890960693,-14.968987119400232,4.633033832446375,-6.931348807378674,17.134152274417097
1829,18.33863306045532,-15.297208188010757,4.057317772117071,-6.5647829159896975,17.133673878808086
1830,18.3501558303833,-15.174269554138887,3.598078986697678,-6.123772186073854,16.75425959817722
1831,18.358741998672485,-14.574384301535392,3.27379266971041,-5.624680124167693,15.961435484075297
1832,18.37697505950928,-13.509614090651315,3.086081783045277,-5.087144658572953,14.761863514719806
1833,18.38570499420166,-12.036310129534323,3.0179337280185132,-4.53204561273872,13.210606456820464
1834,18.388678073883057,-10.256052087429284,3.0349837488823423,-3.9788056651568917,11.411775729356368
1835,18.3987250328064,-8.308736743487515,3.0903734731644543,-3.4421974602155405,9.509691784244763
1836,18.40930199623108,-6.356817590371318,3.1328519279504077,-2.929571178518042,7.668525175659293
1837,18.41890382766724,-4.561981655808511,3.116420723292862,-2.440392169402139,6.039807007925158
1838,18.43195390701294,-3.0584658659228228,3.0087827432412864,-1.9697901677375764,4.72091732123718
1839,18.43911099433899,-1.9299189758868207,2.796384287279625,-1.5155547673020136,3.720384199020885
1840,18.449278831481934,-1.1974046142089965,2.485602466115872,-1.0850805153665433,2.9646917469643324
1841,18.45935297012329,-0.8229720327213429,2.1008056793299454,-0.6979247799703189,2.3617295500211433
1842,18.477854013442997,-0.726919567649925,1.6797763834655903,-0.3820515791496129,1.8697658049637673
1843,18.48721599578857,-0.8113440832768232,1.2665484779197176,-0.16552712876901027,1.5132162762631038
1844,18.488952159881592,-0.9813861447012141,0.9024937851661653,-0.06730909514072247,1.3349697792698259
1845,18.499089002609253,-1.1588215266172237,0.6179007213633321,-0.09017238496517549,1.316358496391886
1846,18.509058952331543,-1.2875059398749364,0.4264797011164175,-0.21751503654428792,1.3736336017295352
1847,18.520056009292603,-1.3335336732751644,0.32395507497699005,-0.41479673076869783,1.433637079674804
1848,18.532078981399536,-1.2834524831380922,0.2906531003909765,-0.6353340334680222,1.461293548648925
1849,18.539026975631717,-1.1422110351519912,0.29740926196116774,-0.8292417376135459,1.4424770976773262
1850,18.54950499534607,-0.9304201722530714,0.31353937261748366,-0.9538351514561889,1.3688645408769455
1851,18.55952405929565,-0.679564058935643,0.3148267192977651,-0.9832466927480606,1.2360004984549477
1852,18.576866149902344,-0.4246876491701893,0.2890304623863763,-0.9141738179874619,1.048623849165542
1853,18.578978061676025,-0.19610357663229874,0.23693024954168157,-0.7650645232694241,0.8245703612678147
1854,18.58951091766357,-0.013077112466319438,0.16873193161143923,-0.5686877541241435,0.5933356868641447
1855,18.599653005599976,0.11808796443990399,0.09804657554118391,-0.3612113556554257,0.3924685232924337
1856,18.609321117401123,0.20140247338524692,0.03660877908923441,-0.17221782827357401,0.26751100793680566
1857,18.619230031967163,0.24616368400640437,-0.008481771206695621,-0.019132279026053616,0.24705170282177455
1858,18.63252687454224,0.26241534954387213,-0.03517378525392826,0.09281621163297218,0.28055990445396634
1859,18.63919496536255,0.25848898443690166,-0.045475756917232706,0.1666882253383886,0.3109172944834003
1860,18.649660110473636,0.24035860720085234,-0.04390233285969773,0.20913754091079614,0.32161807459201086
1861,18.659532070159912,0.21174956204865614,-0.03596511167803079,0.22740311016443165,0.3127995217359955
1862,18.67701816558838,0.17447205171159683,-0.026956317749567166,0.22831011262284492,0.28860465592385354
1863,18.679272174835205,0.12917138263777053,-0.020941354712153755,0.21799432563880874,0.2542544246231569
1864,18.68951416015625,0.07662144886486666,-0.01992415025666068,0.201221768846224,0.21623602485988447
1865,18.699462890625,0.019063406595484472,-0.02340722570134151,0.18044529605236462,0.1829530446685264
1866,18.70950984954834,-0.03919813713545438,-0.02863168592584689,0.15556137451575036,0.16295891701614787
1867,18.719439029693604,-0.09229011812848108,-0.03153444703318544,0.12491880651587237,0.15848216137852147
1868,18.731523990631104,-0.13398373368503644,-0.028079063933793662,0.08709423803991473,0.16225128974320718
1869,18.7393741607666,-0.15889415762225795,-0.015408034840110114,0.04239096809037819,0.16517189542945998
1870,18.750327110290527,-0.16314319666664936,0.007583193342010627,-0.006648245484144897,0.16345460106063947
1871,18.75977396965027,-0.14444759882281227,0.04026459094547544,-0.055671287831150704,0.1599551136364868
1872,18.77749300003052,-0.10195030646224842,0.08060056237396336,-0.09935555127192615,0.16359046797198754
1873,18.779513835906982,-0.036122383931157166,0.12550269907599929,-0.13214991963673964,0.18579385177186972
1874,18.789641857147217,0.051167591541003504,0.17111420473615827,-0.14875555087573644,0.23243581351189982
1875,18.799638032913208,0.15653785775967602,0.213102188249207,-0.1444888787216411,0.30131989582970803
1876,18.80973196029663,0.27511608694148326,0.24705936419392677,-0.11572872278465697,0.3874536462691623
1877,18.819605827331543,0.40081734458176776,0.2690259899006808,-0.06046981816855337,0.4865039834050269
1878,18.829771995544437,0.5268655979427378,0.2760299320742357,0.02120667549511098,0.5951719119565546
1879,18.839722156524655,0.6464333229433377,0.26651935625599066,0.1269561375808819,0.7106521435555717
1880,18.850133895874023,0.7532526695252716,0.24065723037377987,0.2523114001052631,0.8300400769247258
1881,18.860724925994877,0.8421204645363539,0.2005437445681889,0.39098258671742975,0.9498694928213075
1882,18.877506971359253,0.9092913301705569,0.1504130878339366,0.5351644407179624,1.0657559752232448
1883,18.879733085632324,0.9527737792939334,0.09676397887552696,0.6758445830424272,1.1721378086836294
1884,18.890331029891968,0.9725402009848281,0.04836360852465517,0.8031888536426746,1.2622542595598438
1885,18.89995002746582,0.9706781392560991,0.016117473473850053,0.9070379874299895,1.3286059361683995
1886,18.91006183624268,0.9515421169500078,0.012811664034034985,0.977514005881805,1.364232447481043
1887,18.9206280708313,0.9219585272019195,0.052685183988022695,1.0057871511002612,1.365427056935142
1888,18.930541038513184,0.8914709997558813,0.15076607636207154,0.9850823162882639,1.337100640584401
1889,18.940239906311035,0.8725464563933448,0.32194915845276334,0.9118793297672635,1.3025023958710475
1890,18.950254917144772,0.8806292548129193,0.579869863523548,0.7870647511000028,1.3157613254231504
1891,18.960093021392822,0.9339008363709107,0.9357018789325624,0.616714238621262,1.4587821052269652
1892,18.978028059005737,1.0525833402114992,1.3970324312149924,0.41225648939952836,1.7971050929228634
1893,18.979890823364254,1.257675284583419,1.9669029865679917,0.18989838800544617,2.3423312912116288
1894,18.99051594734192,1.5691047109427085,2.642980414546449,-0.030652970640226672,3.0738208585062
1895,19.00014305114746,2.0033708522920906,3.4167544439468926,-0.2279783598257653,3.9673265349090214
1896,19.010191917419437,2.5708388848098997,4.272719578527182,-0.38098280692225917,5.001049196673681
1897,19.02023696899414,3.272963250237715,5.187673140973851,-0.47095709274213854,6.151913656594365
1898,19.031827926635746,4.099780332942665,6.130442786174212,-0.4835099896561501,7.390826032524119
1899,19.039981842041016,5.02802438516237,7.06243742872512,-0.41024743283620974,8.679133286716688
1900,19.05010414123535,6.020247863571654,7.939352267301653,-0.25001957141948894,9.966905665713895
1901,19.06004285812378,7.025386442610427,8.7141542811338,-0.009417848145213488,11.193418968272411
1902,19.076637983322144,7.981254086412049,9.34114529420783,0.2978038497490766,12.290081339531302
1903,19.08046817779541,8.819377853563548,9.78056782413851,0.6522942251389449,13.18584166606934
1904,19.09102201461792,9.47221508875753,10.00309840958139,1.030978984258299,13.814765801324242
1905,19.100417137146,9.882130946763365,9.993659365118853,1.4085284933920967,14.12493157759369
1906,19.11057710647583,10.010864430336229,9.753961888814464,1.7582764033588123,14.087182652383852
1907,19.121150970458984,9.847855505963606,9.302931828042588,2.052980601783677,13.701807472550678
1908,19.1302490234375,9.415696293125299,8.674058658459955,2.2660595626594153,13.00114057443799
1909,19.14027214050293,8.771059454371468,7.909332942029776,2.3739668215601295,12.046773427348288
1910,19.150360107421875,7.99998821153481,7.0509181771893195,2.3598974905888204,10.92173862954988
1911,19.1609480381012,7.207551707001368,6.133310777520629,2.2179729495098317,9.720375852172918
1912,19.17782688140869,6.503218903705418,5.179161194561219,1.9561348460914338,8.540610652924851
1913,19.181469917297363,5.98436963982386,4.200396342122841,1.5960049937248437,7.483531342685693
1914,19.19090414047241,5.721047710174499,3.2036169533943535,1.169160006905406,6.660366627139654
1915,19.20108795166016,5.745414985842043,2.196711606363263,0.7111236095731752,6.192013568231401
1916,19.21064400672913,6.048833034389109,1.193362893530366,0.25544907342885875,6.17071716275246
1917,19.22056007385254,6.587353920245505,0.21354030429756127,-0.17058631339465746,6.5930213728192095
1918,19.23261785507202,7.293281606080424,-0.7196930750060995,-0.5486863572046573,7.349215701446332
1919,19.241310119628903,8.088464727277529,-1.5848841166538479,-0.8709214304047123,8.288161644512767
1920,19.251872062683105,8.895512682304343,-2.3657437464239672,-1.139552057114041,9.274991549627114
1921,19.26122498512268,9.645401121204499,-3.051918792289497,-1.3651614118891162,10.208410100704903
1922,19.27888584136963,10.282011749448344,-3.6370903487952435,-1.5635418932581777,11.017842577976266
1923,19.28057289123535,10.764877444346979,-4.115873343593486,-1.752057097978875,11.657302597380406
1924,19.29094886779785,11.070974919737742,-4.481333284917153,-1.9461459072273137,12.101087454282201
1925,19.300616979599,11.19560080823435,-4.724251325103672,-2.156474761447798,12.341410431423256
1926,19.311372995376587,11.15177562016314,-4.8340958132171945,-2.387063825892803,12.386632129950215
1927,19.32193088531494,10.967520245233981,-4.800777286173508,-2.6345567689365517,12.258664374629323
1928,19.331951141357425,10.680786014263909,-4.6161343002634,-2.888686962506242,11.988844737001031
1929,19.34082794189453,10.332584360830527,-4.274558329083341,-3.133887097050535,11.612725641272817
1930,19.35155296325684,9.959532688130633,-3.7727524136131323,-3.3518527126417785,11.16516317604048
1931,19.361937046051025,9.587222028480605,-3.109021234529356,-3.524676793314403,10.677274266284787
1932,19.377779006958008,9.225460758023756,-2.282675318550301,-3.63796772710703,10.176175214255466
1933,19.380892038345337,8.865842951583518,-1.2941682971228803,-3.6832755704957143,9.687340282638553
1934,19.39119005203247,8.481587289497762,-0.14646843047407967,-3.6592819730190462,9.238458773440389
1935,19.40088200569153,8.029364759328692,1.1521740754766414,-3.571520902292024,8.863067476560177
1936,19.411059856414795,7.452836537274751,2.5844401287551753,-3.4307629811395417,8.601990343124958
1937,19.420988082885746,6.687718458673155,4.120047817991443,-3.2505086224358424,8.500951623762099
1938,19.43185806274414,5.66824727488184,5.712937437439682,-3.0442236291928624,8.604300020213234
1939,19.441478967666622,4.334858220699386,7.300607485861198,-2.8229505507949346,8.94756476748903
1940,19.452571868896484,2.6426564684690454,8.806265930124459,-2.5937330998419106,9.55308349359659
1941,19.46147489547729,0.5699257717959626,10.143959975177031,-2.3590136858374686,10.43022938066653
1942,19.47957992553711,-1.874399169465539,11.226390657662709,-2.116965695268629,11.576992839243438
1943,19.481127977371216,-4.645513334752708,11.974712141079436,-1.8626596638696462,12.978598769839811
1944,19.491551876068115,-7.660871728704893,12.329207346933194,-1.5899626915804175,14.60227005667129
1945,19.50122594833374,-10.80238573321261,12.259330573555708,-1.2940253148790664,16.39076646030871
1946,19.51162815093994,-13.922851309234643,11.771329244944083,-0.9740360029422093,18.258114001915978
1947,19.52170991897583,-16.856221522061677,10.911681815919636,-0.6356651444833681,20.0898251418124
1948,19.532483100891117,-19.43095166402342,9.76504454981081,-0.2925467125908091,21.74864504304698
1949,19.54269003868103,-21.48540680063905,8.44615566028681,0.03364471603498605,23.085956397638345
1950,19.551464080810547,-22.88399363229705,7.085924913081987,0.31490220252936424,23.95801869591903
1951,19.56183695793152,-23.532251722479334,5.812968055739975,0.5209490414414026,24.24518213276534
1952,19.57780599594116,-23.389007641771865,4.733742608023036,0.625593996351893,23.871434087506074
1953,19.58170890808105,-22.47405114189494,3.9164632606601644,0.613295430925647,22.820994511331104
1954,19.591812133789062,-20.870193179125774,3.3836413637119507,0.482634490737793,21.1482133586717
1955,19.6018009185791,-18.718524919926534,3.1145984646831386,0.24553598020786463,18.977465233578847
1956,19.612179040908813,-16.205672769000564,3.0555648652278435,-0.07541191725725373,16.491391496741734
1957,19.621413946151733,-13.543007467952696,3.1336694731248107,-0.4488650574894612,13.90807015669866
1958,19.631417989730835,-10.940163564859251,3.2714413774291566,-0.8362751723326742,11.4494045118377
1959,19.642457962036133,-8.577294257527983,3.3989618387643894,-1.195768776020436,9.30337472787722
1960,19.65146112442017,-6.581313399178842,3.4617923160081387,-1.4896166375225997,7.583973221482793
1961,19.661521911621094,-5.01146109084388,3.424355326407785,-1.6925213232571301,6.301236394249907
1962,19.67882204055786,-3.8584359969234625,3.2698450659823193,-1.7955552412637308,5.366883054652237
1963,19.68149709701538,-3.0577379990369007,2.99841742948131,-1.8034959880394879,4.646812513007817
1964,19.69199085235596,-2.5128875661650407,2.624907430429504,-1.728552334577491,4.024007469163567
1965,19.701592922210693,-2.121170434530765,2.1759390705564607,-1.5848190722909234,3.4272038665650766
1966,19.71277594566345,-1.794960703863967,1.6855650293552469,-1.3852472244190206,2.825229772843579
1967,19.721632957458496,-1.4743266479026655,1.189485916400757,-1.1407615450189392,2.211301135672312
1968,19.73237705230713,-1.1300558095018727,0.7193548079342832,-0.8608013768052809,1.5923179590135161
1969,19.74156808853149,-0.7592643554851913,0.2989157438002601,-0.5548908131978678,0.9867810283813714
1970,19.75231695175171,-0.37726787914588317,-0.05733957221905898,-0.23489141481225123,0.4480991585910405
1971,19.7619309425354,-0.009074734758121691,-0.3433022525518736,0.08293161009343757,0.35329370128946624
1972,19.778743982315063,0.3176677874485804,-0.5587925318196002,0.3775659968419875,0.7454649547571764
1973,19.7817599773407,0.5781546592748188,-0.7065784427875857,0.6260437997492937,1.10699898150714
1974,19.79220485687256,0.7550389627215819,-0.7905207548966864,0.8091052705686643,1.360021410865322
1975,19.801899909973145,0.8423738179861164,-0.8158456932135938,0.917077008423642,1.4887001322438758
1976,19.812099933624268,0.8478611578933896,-0.7904512362122295,0.9525497707164449,1.5003442157004214
1977,19.821902990341187,0.7918554255614729,-0.7250905576371683,0.9283970289390923,1.4194056414952898
1978,19.832982063293457,0.7025715224323782,-0.6317697764419522,0.862620567132464,1.2793959658363776
1979,19.842698097229004,0.6088615904608238,-0.5216549962542474,0.7730395223131664,1.1137443488133492
1980,19.854597091674805,0.533255253489969,-0.40388111891153544,0.674140534335353,0.9497086835560894
1981,19.86225199699402,0.4877628857557981,-0.28546479973589967,0.5763941211769616,0.8072378630468487
1982,19.88109016418457,0.47348418009515014,-0.17166357049424738,0.48675975236025404,0.7004218063089026
1983,19.88353705406189,0.4833860307856199,-0.06612431622385713,0.4091490598752494,0.6367396902593314
1984,19.89217185974121,0.5066268083215477,0.029256002560007693,0.3447312175373691,0.6134869590632439
1985,19.903181076049805,0.5326853246128374,0.11431504694300484,0.29256804764989996,0.6183992622255782
1986,19.912231922149655,0.554007314264761,0.1901172817498327,0.2506507879938,0.637098503059544
1987,19.92203712463379,0.5666717535990863,0.25811182921866666,0.2169027314775084,0.6593825806252951
1988,19.93311905860901,0.5694832499105393,0.3193365206944517,0.1898060769606579,0.67993627071153
1989,19.942325115203857,0.5625007569269829,0.37390070069521647,0.1686406011022662,0.6961669971091248
1990,19.95456004142761,0.5459667760082735,0.42081585278052513,0.15342082045289038,0.7061895288127026
1991,19.962337970733643,0.5200234917957454,0.4581619169263593,0.14459858567259734,0.7079869526478516
1992,19.98096513748169,0.48499769622464817,0.4834852134959625,0.14264149457310665,0.6995193442546833
1993,19.983296871185303,0.44179120396312094,0.49427808521160854,0.14761392891063688,0.6791760930922648
1994,19.99291706085205,0.3920212505130553,0.4884502453229918,0.15882753533173186,0.6461350392831695
1995,20.003745079040527,0.3378106820268257,0.46477945514583435,0.17459104418639104,0.6005148054188024
1996,20.013484001159668,0.2813565939837316,0.4233551990859059,0.1920954537184162,0.5434076010790404
1997,20.0222270488739,0.22451613123971934,0.36602899142929196,0.2074643386867106,0.4768921970218319
1998,20.033301830291748,0.16864405073134645,0.29687202162828363,0.21599429905132658,0.4040140471511046
1999,20.04251194000244,0.11485197327414694,0.2226024593942088,0.2126274946426403,0.32856244790195027
2000,20.055141925811768,0.06474079350289393,0.15290446131292074,0.19269310352980165,0.25436543943846945
2001,20.062921047210693,0.021485266573453753,0.10054874289220227,0.15289800332385375,0.18425380809458392
2002,20.079993963241577,-0.00900111420881541,0.08123662147211835,0.09245352216918593,0.12340203599087225
2003,20.082371950149536,-0.017138424308920958,0.11311386350119759,0.014117718481454452,0.11527264063550281
2004,20.09323787689209,0.010750935315878831,0.21592508505864227,-0.07514031424665837,0.2288783340398009
2005,20.103994846343998,0.09221875582081128,0.40979062825105333,-0.16411787743223186,0.4509626765269965
2006,20.113726139068604,0.24774703152216715,0.7136020175302035,-0.2381198402697393,0.7920274549416256
2007,20.122448921203613,0.49909382145793696,1.1430784050360863,-0.28040283607431754,1.2784164552898443
2008,20.13350296020508,0.867020162826298,1.708599101173178,-0.27410789069000097,1.9355025153731147
2009,20.143106937408447,1.3685814882940701,2.412999928710373,-0.20435637295745765,2.781608432764361
2010,20.156033039093018,2.014250182252493,3.2495760091284587,-0.060127269466571626,3.823684522073042
2011,20.163218021392822,2.8051851834135433,4.200555331313997,0.16441422269356065,5.053786802121479
2012,20.180076122283936,3.730964358290116,5.236304074798955,0.46928213275128045,6.446642624398137
2013,20.18263816833496,4.768051663668678,6.315546867596898,0.8486482478484615,7.958684109374042
2014,20.193400859832764,5.879225493130086,7.386944588322294,1.2912226927240247,9.528877100278931
2015,20.204453945159912,7.014200160950746,8.392347265209779,1.7808704275225302,11.081606201150617
2016,20.213896989822388,8.111739428727144,9.2717561120888,2.297448744283062,12.531721697126473
2017,20.222702980041504,9.103607745040312,9.969505763081576,2.817854716907188,13.791556269735146
2018,20.2336220741272,9.920559471064843,10.44072331354178,3.3170558047574743,14.779345815723525
2019,20.243232011795044,10.500123914829143,10.656986712592365,3.7688575706452756,15.428164356362922
2020,20.25575399398804,10.795355956973125,10.610106193056225,4.146576537405129,15.694207869346062
2021,20.26335382461548,10.783247704308804,10.312839537323205,4.424192326746339,15.5629871207008
2022,20.27984094619751,10.471208796514238,9.79552953144051,4.578543732064725,15.051965824036058
2023,20.28298091888428,9.899938195454347,9.098814077775568,4.592704983403017,14.208804768886004
2024,20.29326295852661,9.141335279746421,8.264437574937931,4.459981728677313,13.105585685001568
2025,20.30492210388184,8.290976148565912,7.327406280424193,4.187405489396376,11.830702981104533
2026,20.314094066619877,7.455897875996553,6.312206537332491,3.7974502152980065,10.481173247537694
2027,20.322944164276123,6.739617764153484,5.233900517344529,3.3267623947075045,9.158794148969205
2028,20.33438014984131,6.2271550229451655,4.1029730995179055,2.821191787098366,7.9731406004629095
2029,20.343472003936768,5.973073450374449,2.9318125927434266,2.327781104694632,7.049233745160564
2030,20.35480117797852,5.995118218771578,1.7405313776543165,1.8859299528716735,6.521320703721347
2031,20.36316704750061,6.274809052098512,0.5599410856272459,1.520215678783947,6.480572379789565
2032,20.380704879760746,6.7643499363941375,-0.5698314891109137,1.2361358798617255,6.899939847669634
2033,20.382872104644772,7.3971171679560594,-1.6048244222740182,1.0189632737318295,7.637479294637184
2034,20.393821001052856,8.098219144985478,-2.5044931608573844,0.8359954174300482,8.517777154337555
2035,20.40353894233704,8.79278298757922,-3.237788374239722,0.6425167234574464,9.39197178248247
2036,20.413249015808105,9.41164186747008,-3.7863440674115343,0.3906727639560575,10.152242572300727
2037,20.42312812805176,9.895456499474607,-4.144865570569773,0.039134390366708426,10.728536779617167
2038,20.433268070220947,10.198398122706937,-4.319835931385773,-0.4389058518342026,11.08426565407462
2039,20.44406199455261,10.29171774237783,-4.327578471907546,-1.0511959101845645,11.213937861468693
2040,20.453606128692627,10.166582288953121,-4.1920302818588855,-1.7859101776790796,11.141004823839495
2041,20.46339201927185,9.835063372710744,-3.942061758320109,-2.6144515130534742,10.913463206780598
2042,20.4805269241333,9.328310777363109,-3.6082261989593456,-3.4961743288673635,10.595277872701429
2043,20.48310899734497,8.69162541510837,-3.2192135266647766,-4.383750932137459,10.253046392259971
2044,20.493420124053955,7.977070598926095,-2.798540240829374,-5.228381855068543,9.939892335543803
2045,20.50516700744629,7.235004100504252,-2.3619626347343856,-5.98438260061779,9.681786350295678
2046,20.513558864593502,6.506165822072577,-1.915950490466065,-6.61280404268982,9.4726045675536
2047,20.523280143737797,5.815727342210902,-1.457501536508342,-7.083871422905336,9.280529596101644
2048,20.534507989883423,5.170210449018246,-0.9755326323250672,-7.378225111859709,9.062060792399581
2049,20.54430294036865,4.557587950516622,-0.4538481189180593,-7.487097708409935,8.776913930136097
2050,20.553959846496586,3.9502975447881106,0.1247416398935123,-7.411613932429362,8.399549526758166
2051,20.563715934753414,3.3104406164065243,0.7739535352620794,-7.161431626879523,7.927428592927782
2052,20.581020832061768,2.5961987535722466,1.5001039925956166,-6.75300463785636,7.388750340589463
2053,20.583352088928223,1.768480253729378,2.2993760337836897,-6.207785853515639,6.852098784728547
2054,20.593677043914795,0.7969208162807819,3.1565535941823004,-5.550624034239899,6.434931277787545
2055,20.60402011871338,-0.33546637331813994,4.0451713976054355,-4.808442698309074,6.292620321182121
2056,20.614806175231934,-1.6294741622710334,4.92888692495175,-4.009113020740823,6.559123384839076
2057,20.623569011688232,-3.068915429518883,5.763905491308374,-3.1803466288342945,7.263294920751295
2058,20.634109020233154,-4.621746505997269,6.502373283066165,-2.348482081294103,8.316054783621263
2059,20.644464015960693,-6.242718664991568,7.096681466779999,-1.5371981585510242,9.575876061741061
2060,20.65451717376709,-7.877065905386149,7.504521546390933,-0.7663799895807412,10.906573669419394
2061,20.66387104988098,-9.464788328004207,7.6942933218992815,-0.051474164302530864,12.197828388977245
2062,20.68132996559143,-10.945190985601775,7.650171162496554,0.5964077263376321,13.367050037417659
2063,20.683727979660038,-12.261334264314854,7.375901710010618,1.1696495888339822,14.356612557900228
2064,20.69494390487671,-13.363906802795032,6.896359804793737,1.6628909906675344,15.130069069168497
2065,20.70416784286499,-14.213896427200782,6.256144428839209,2.0718628527511527,15.667380458720505
2066,20.71395492553711,-14.783557542237288,5.51507659704213,2.3925990252802096,15.959140752924469
2067,20.723772048950195,-15.055686718035151,4.7412144863784444,2.6209939592814386,16.000700818778366
2068,20.73397016525269,-15.021938941785004,4.002653349755285,2.7526000503821666,15.787865290988135
2069,20.743844985961918,-14.68143753431346,3.3596365982600878,2.782918935402129,15.315887305257126
2070,20.75466012954712,-14.040948202293531,2.858214703457009,2.7087477460846476,14.58269289474569
2071,20.764381885528564,-13.117338507150391,2.5260620258003454,2.5306935558816632,13.595954131400338
2072,20.7818820476532,-11.942029474508983,2.3705440322696476,2.2559291529102374,12.382276176936163
2073,20.783817052841187,-10.565977239272524,2.378870948871544,1.8997217749997435,10.9958103309678
2074,20.795834064483643,-9.062855085656281,2.5200369223763914,1.4849896460742427,9.523188680410248
2075,20.803948879241943,-7.527808942271972,2.7483090989886545,1.0405817437235847,8.08108413149526
2076,20.81516695022583,-6.069614193216258,3.008366808238876,0.599600887296505,6.800735881612545
2077,20.82405805587769,-4.795781890179844,3.242206741573547,0.19792661729057434,5.792288273136447
2078,20.83483409881592,-3.793314141221499,3.397113162249846,-0.12870029845127878,5.093738683711955
2079,20.84468984603882,-3.110930765962657,3.4330849141312476,-0.35058235530023524,4.64616726411097
2080,20.85449886322021,-2.749213379923331,3.3281545570249365,-0.4516255220596526,4.3403631848004345
2081,20.86466217041016,-2.6621601502607555,3.0807155575588903,-0.4341993889747811,4.094683641211836
2082,20.881722927093502,-2.7688193916588393,2.708410871359942,-0.3178286159584219,3.8862405099078456
2083,20.884035110473636,-2.9702727505991082,2.2435651411970294,-0.13266120178108057,3.724742105193867
2084,20.896120071411133,-3.1671783451325553,1.7262452856981743,0.08847159668267293,3.6081530842927583
2085,20.90418100357056,-3.2751197505161285,1.1971846818275074,0.31634012993765237,3.501389955493708
2086,20.91494083404541,-3.236532948742468,0.6926193501076838,0.5286782073585946,3.3517708363453345
2087,20.92437195777893,-3.02801105400828,0.2415570097620647,0.7106276149057472,3.1196461881482898
2088,20.935086965560917,-2.6614459524727176,-0.13536814460880264,0.8532173765642271,2.798142059327829
2089,20.944655895233154,-2.1782112335635775,-0.42642302037107743,0.9512421458978296,2.414808975976622
2090,20.954461097717285,-1.637567478731337,-0.6288310118182416,1.0016925848401563,2.0200108225815563
2091,20.96500015258789,-1.1024640173999658,-0.7477928935142674,1.0033629808273636,1.6677405051586667
2092,20.982378005981445,-0.6265700321153047,-0.7941475886982183,0.9575761840214918,1.39291512519081
2093,20.984323978424072,-0.24540488971290217,-0.7813607139917665,0.8692917935114615,1.1943267339932981
2094,20.996499061584476,0.02725538016457242,-0.7231355031656349,0.7476119507269932,1.0404765449333067
2095,21.00437903404236,0.19786556364173782,-0.632327044739203,0.6051205952360166,0.8973066407659467
2096,21.01463890075684,0.28745259043684035,-0.5207627491486905,0.4561852959602994,0.7496184742254807
2097,21.02596616744995,0.32349199250523397,-0.39922311602569294,0.3147559651030446,0.6025757074029945
2098,21.03523111343384,0.331743975935079,-0.27722469979786935,0.1922935474259725,0.4731642506877477
2099,21.044929027557373,0.33056520570343534,-0.16266312658205956,0.09640777395856413,0.3808242466687898
2100,21.054769039154053,0.3291296217496382,-0.06148040323048736,0.030500326403020736,0.33620889013399696
2101,21.064734935760494,0.32921758356065217,0.022586538512605774,-0.005729558645652777,0.33004120483626037
2102,21.0816650390625,0.32889614343171475,0.0881705334430591,-0.015335500041862921,0.3408546518582703
2103,21.08465600013733,0.3261502694027314,0.13623052809218186,-0.003126494363350195,0.353472106371568
2104,21.09636116027832,0.3210438734703622,0.1696356247280228,0.02516086151556985,0.3639759371468479
2105,21.10527610778809,0.31586157406092125,0.19238658666145642,0.06347962910147772,0.3752476462369219
2106,21.114842891693115,0.31371566081903235,0.20868135695062562,0.10593362737779624,0.39139156607072456
2107,21.12470388412476,0.3167715520123972,0.2221020949256978,0.14713550400451925,0.41391111760061533
2108,21.134783029556274,0.32507833552924875,0.23513902183893878,0.18247367650424295,0.4407526817148307
2109,21.145781993865967,0.3364043024525689,0.24910157769986238,0.20829211632830721,0.467552196493274
2110,21.155436992645264,0.3470185263142316,0.26433239110624046,0.22200251491834078,0.48946765697368777
2111,21.165340900421143,0.3529692697121871,0.2806250781990594,0.22211048011695103,0.5026637099027196
2112,21.181679010391235,0.3511666884282393,0.29776354588538584,0.20808343702993112,0.5052523024055245
2113,21.184977054595947,0.3398692166362175,0.3160778411604897,0.18005919380037647,0.49783290305245337
2114,21.19752597808838,0.31876872687753594,0.3369164457032975,0.13854747669039963,0.4840677596346868
2115,21.206026077270508,0.289050054800432,0.36300846895952343,0.08429469511385064,0.4716255700667714
2116,21.21513700485229,0.2535128642349479,0.3987446475067182,0.018337025759673033,0.47286606217995275
2117,21.22482800483704,0.21668414943762854,0.4503764883046587,-0.05783522612291604,0.5031261424492209
2118,21.236753940582275,0.18498584186897837,0.5260849817537896,-0.14204019867030004,0.5754655400257761
2119,21.245497941970825,0.16706447292228613,0.6358700733378843,-0.23108572084892676,0.6968801178537064
2120,21.25522804260254,0.17419251840361344,0.7912336749971973,-0.3204163808778934,0.8712407354183176
2121,21.265499114990234,0.2204928079076809,1.004639980548804,-0.4038509961798798,1.1049951112885503
2122,21.284389972686768,0.32279225002856776,1.2887299085932105,-0.4735490433533697,1.4104142336356584
2123,21.28685188293457,0.5000321351638134,1.6552432945633082,-0.5203591768255381,1.8057231718344393
2124,21.2981059551239,0.7721817185439269,2.113606237701076,-0.5347395511476356,2.3129077634146857
2125,21.30503296852112,1.1585528401295402,2.6692119918164474,-0.5083399679167141,2.9538698115540765
2126,21.315346002578732,1.6754253094940559,3.3215186704471225,-0.4360183157976901,3.7456172011476463
2127,21.32503700256348,2.3330311416681,4.06216190536885,-0.31770584654551587,4.695224239410962
2128,21.33598899841309,3.132187213003637,4.873361089401578,-0.15940436519551235,5.7953131750268865
2129,21.34560203552246,4.0611208174829345,5.7269713499947175,0.027165832490678138,7.020800603941725
2130,21.355513095855716,5.093164062003689,6.5845308633475765,0.22627498121529202,8.327518671248157
2131,21.365576028823853,6.185926189336161,7.398565347304631,0.42086494239447375,9.653060619202005
2132,21.38302707672119,7.282366299465913,8.115295923271558,0.5956586560038608,10.919967769015491
2133,21.385076999664307,8.313989039348739,8.678789300584288,0.7401096142753073,12.041244109787412
2134,21.39827585220337,9.206166215671862,9.03646230000785,0.850565836272361,12.928055133386259
2135,21.4052529335022,9.885321302265895,9.145629125443264,0.9310927666824834,13.49922379580976
2136,21.41575813293457,10.287469277868464,8.980368655190809,0.9927138744548955,13.691768554966021
2137,21.425382137298584,10.367434877492006,8.537379456177732,1.0512366849148993,13.471289933986059
2138,21.43583583831787,10.107850781002472,7.838943040380778,1.1240334371541016,12.840604602945572
2139,21.44540500640869,9.526556122310732,6.931207565057228,1.2262580697237786,11.844856213352923
2140,21.455440998077396,8.680363503621466,5.877224893055503,1.3673318534729446,10.57166398425889
2141,21.46546602249145,7.6629297738637705,4.746265211713146,1.5487978892468766,9.14583517677975
2142,21.48205089569092,6.595367239282152,3.6026760896513377,1.7642774129069403,7.719508975163857
2143,21.48628616333008,5.610342893403837,2.497644777771365,2.001531574316327,6.459125750477437
2144,21.49904584884644,4.832773160756032,1.4656376423979787,2.2460455799163537,5.527070731336767
2145,21.505491018295288,4.361429865929777,0.5253592546641465,2.4850632457546387,5.047139007129294
2146,21.51573395729065,4.255211640175263,-0.3160165561625587,2.7108236700495665,5.055220819761773
2147,21.52802991867065,4.5261819588220265,-1.0568498596712539,2.922323981458401,5.490285256966165
2148,21.53612494468689,5.13986109681553,-1.6948561764723789,3.125712759671889,6.249863183259292
2149,21.546077966690063,6.0221846643588615,-2.2225219991883227,3.3334998587872784,7.233155153669104
2150,21.55647611618042,7.071713800504138,-2.625819503526782,3.562393697114502,8.342344574193962
2151,21.56613302230835,8.174681505094464,-2.8869748215784012,3.8297688770968077,9.477719714263579
2152,21.58630895614624,9.219597390729893,-2.9902184650713775,4.1496910785424515,10.543354236832892
2153,21.588266849517822,10.108403937297503,-2.927837957542272,4.5300252211040695,11.457451451742484
2154,21.59919786453247,10.762897381006582,-2.703768636299453,4.971647207177238,12.160082270500812
2155,21.60579490661621,11.127190793503985,-2.3334886122304135,5.469631266446158,12.61651339512364
2156,21.616962909698486,11.168067766156657,-1.8409177800966487,6.015366387740203,12.817930748810353
2157,21.6270489692688,10.874855366226976,-1.2541469710032487,6.598356653984754,12.781771175952773
2158,21.63644003868103,10.259470060119341,-0.6017855096025869,7.207059648592709,12.552313750557149
2159,21.64587903022766,9.35620870462823,0.08914111317344772,7.829073029531539,12.200039834539764
2160,21.65739393234253,8.220198408296477,0.7938197838199185,8.451494575219783,11.816495769724343
2161,21.6665358543396,6.923516294735879,1.4894636297712167,9.06195811887262,11.50098538109174
2162,21.685053825378414,5.548764959847439,2.155032576768512,9.650087611345917,11.338304498169743
2163,21.68734097480774,4.180855021185589,2.7714051080561637,10.208615022175666,11.37435957107578
2164,21.69924783706665,2.8983725716193462,3.3223192154376058,10.733477030309867,11.603701896092074
2165,21.7070209980011,1.765980693894005,3.796072436888691,11.222647908979422,11.978175146750552
2166,21.716161012649536,0.8289457899787075,4.187506879559682,11.674008651424618,12.429997706460766
2167,21.72753405570984,0.11034297265286744,4.4993846248202685,12.083034525665695,12.89404362184773
2168,21.736135959625244,-0.38903744020068465,4.742211529678589,12.44123367646826,13.320068157279916
2169,21.74606204032898,-0.6885090930536966,4.9321154329165315,12.73584479786631,13.674851009432219
2170,21.75701594352722,-0.8237551713923155,5.087307435203244,12.950641007768047,13.93837766867985
2171,21.76637005805969,-0.8423025977926398,5.224314849007245,13.067414037907566,14.098235667838354
2172,21.785101890563965,-0.7987632825941192,5.355109692973231,13.06784044062621,14.145093721395494
2173,21.78738212585449,-0.7501328971486173,5.485643279587962,12.935531462502713,14.070641626154464
2174,21.799817085266117,-0.7513039596285878,5.615682162277407,12.658046973656564,13.868182900970492
2175,21.806180000305176,-0.8509922272710808,5.739563641995172,12.22870745596398,13.535437363267494
2176,21.817441940307617,-1.0883719727100942,5.847489624495115,11.648190897672434,13.078915843760822
2177,21.827911853790283,-1.4907138168692646,5.927055354585768,10.925945370527248,12.519125173105131
2178,21.83631896972656,-2.0721869612317456,5.964800802691941,10.081224565848178,11.895541020279577
2179,21.84669685363769,-2.8338199299176394,5.947712882919448,9.143224280076216,11.269621740263496
2180,21.856706142425537,-3.7644789998158514,5.864739661371364,8.149713844686532,10.723073681831726
2181,21.86678504943848,-4.842602350344141,5.708361849739551,7.143829611076414,10.34748732993729
2182,21.886029958724976,-6.038309495839475,5.476079266023595,6.169129035684398,10.222855704461596
2183,21.88824987411499,-7.3154489162121905,5.171482905682793,5.263509928002486,10.39059984080131
2184,21.90060806274414,-8.633245587416257,4.8045841829353355,4.453362610431291,10.837407304495946
2185,21.90633797645569,-9.94749283988405,4.391272055617658,3.7500182366936974,11.502109408344552
2186,21.917623043060303,-11.21153992726675,3.9520296897176026,3.1500246164312706,12.297960046008805
2187,21.92737603187561,-12.377391962731101,3.5102386370309633,2.638803388418414,13.133350311733635
2188,21.93815803527832,-13.397024609775679,3.0904642513748892,2.195634171163282,13.923076064488809
2189,21.947044849395752,-14.223833349212912,2.7169801381811363,1.798116010564041,14.592211532351733
2190,21.957162857055664,-14.814280890085534,2.4124416047608768,1.4254497405000888,15.076959234189978
2191,21.966583967208862,-15.130132477716069,2.1963075111602923,1.0607384486885891,15.325463827673993
2192,21.98598003387451,-15.141685168103834,2.08270530080454,0.6928054979096658,15.299943482180215
2193,21.98817110061645,-14.831832291466934,2.0779393494192435,0.3179337617134977,14.980058842971996
2194,22.00038695335388,-14.200004202625728,2.178314746444309,-0.058572071236135476,14.366231418736577
2195,22.00650095939636,-13.264694713087795,2.368979569443585,-0.4216864737098474,13.481172408732494
2196,22.01677083969116,-12.063815023800924,2.6241096464663216,-0.7476554703873821,12.368531564723545
2197,22.026669025421143,-10.65314013183914,2.9083903945387237,-1.007084052963574,11.088838877239596
