,time,New_AccelerationX,New_AccelerationY,New_AccelerationZ,new_NetAcceleration
992,10.003154277801514,0.4403675418013186,0.25280261941309773,-0.043153159595639534,0.5096027192209107
993,10.01335310935974,0.3820223308541912,0.25189714617896375,-0.03866118379122735,0.45922534844726765
994,10.02327823638916,0.32821878918973796,0.2542065272970774,-0.03564236265501079,0.41667602536412957
995,10.033392190933228,0.28286929110820036,0.26280934721741783,-0.03552745185982871,0.3877447468020083
996,10.044727087020874,0.24943629689888963,0.28045745206048767,-0.03944813889227666,0.3774003236471269
997,10.053653240203856,0.23068024066026563,0.3094379671020575,-0.047937963036034925,0.3889257991126024
998,10.06873607635498,0.2283977442794677,0.3514427085128836,-0.06069764823886311,0.4235111704082309
999,10.07371211051941,0.243192459449824,0.4074500045792464,-0.07658482335897655,0.48064884659573237
1000,10.08376121520996,0.2743366804663246,0.47765104441215617,-0.0939094115391434,0.5587755471143436
1001,10.094808101654053,0.3197801045904093,0.5614882310276433,-0.11092568912868572,0.6556163949925895
1002,10.10391616821289,0.37634350153633445,0.6578880083771493,-0.12627445587499875,0.7683725014090549
1003,10.114113092422484,0.44010735019355623,0.7657448179214753,-0.13916078428056658,0.8941058828514492
1004,10.12407922744751,0.5069656133106574,0.8846437112639542,-0.14920587499286103,1.0304712621372314
1005,10.134323120117188,0.5732622227105868,1.0157175108172471,-0.15607598295904856,1.176720591399887
1006,10.145580291748049,0.6363944258141814,1.162454026564106,-0.15910850916282956,1.3347706719772063
1007,10.15600299835205,0.6952930219313844,1.331242637728389,-0.1571588303277204,1.5100788869468023
1008,10.170042991638184,0.750746081446291,1.5315002082646398,-0.14872574007082426,1.7120840845242415
1009,10.174443244934082,0.8055377801898789,1.7752844491164266,-0.13221501310581507,1.9539720571897703
1010,10.184550285339355,0.864326716616179,2.0763203709871436,-0.10622184748557048,2.251543922937312
1011,10.195841312408447,0.9332072151866248,2.4484094163427637,-0.06989923189367962,2.6211581942209468
1012,10.204713106155396,1.0190386257689998,2.903359273431568,-0.02346938938941788,3.077090444505746
1013,10.21484112739563,1.1287436894338891,3.44875316086196,0.031296742820583895,3.6289034386579324
1014,10.224951267242432,1.2687181928047362,4.085905151691147,0.09088186763751917,4.279313762186089
1015,10.235035181045532,1.4443564640265234,4.80825027081255,0.15019624811262025,5.022747771378857
1016,10.246469020843506,1.6596584922825404,5.600298481717205,0.2030895413276663,5.844574814058442
1017,10.256550312042236,1.9169341822407948,6.43718508341733,0.24315721702321508,6.720945907341038
1018,10.270328998565674,2.2166423039094534,7.284837426822923,0.26480541938573543,7.619217896139806
1019,10.27524709701538,2.5573740560378475,8.10090333630341,0.26453197294765796,8.499104311122366
1020,10.285309314727783,2.9359733099111742,8.836758327474804,0.24231888796398895,9.314878177312368
1021,10.296627044677734,3.3477974034106284,9.440913046172358,0.20284990744718448,10.018968743569456
1022,10.305536270141602,3.7871168825103765,9.863834743759147,0.15604250579504933,10.567016579792046
1023,10.31619119644165,4.247602447287985,10.06364764841925,0.11636990935793019,10.923949491715216
1024,10.326045989990234,4.722792348333159,10.011676753678087,0.10085271884409659,11.070167580326446
1025,10.33589506149292,5.206408705552854,9.696703039322971,0.1262492124073422,11.006756120933423
1026,10.347102165222168,5.692402373784993,9.127195943660618,0.2063456393008543,10.75879775355529
1027,10.357157230377195,6.174678543928428,8.331322160550792,0.35002482464296353,10.375938581236936
1028,10.370033264160156,6.646585765296736,7.354778409509507,0.5602424377445205,9.928934453277567
1029,10.376464128494264,7.100372268620628,6.256502445124834,0.8336982858968243,9.500219051724923
1030,10.386198043823242,7.526867221181587,5.102485778295449,1.1611324379307428,9.167187126999215
1031,10.397550106048584,7.915578026128481,3.958475311253874,1.5285743612673746,8.981227190949935
1032,10.406352043151855,8.255168514554773,2.88299271514981,1.9197541104725964,8.952368962681318
1033,10.416404247283936,8.534074727369022,1.922133288263941,2.3188621615662055,9.049980638350256
1034,10.426684141159058,8.741149372847438,1.1068284749140453,2.7121753706577563,9.21892926930857
1035,10.436652183532717,8.86654028441622,0.452374223652758,3.0880217319125176,9.399790277988393
1036,10.448158264160156,8.902884738334325,-0.04029996349021904,3.4359301433205007,9.542986780924618
1037,10.45822811126709,8.84638494136682,-0.3821108268436418,3.745907493006753,9.614382879883498
1038,10.472148180007936,8.697200081681672,-0.5925549989645691,4.008167836915654,9.59467665408724
1039,10.476622104644775,8.459058306079644,-0.6962376010366328,4.213408910424432,9.475928918538608
1040,10.486929178237917,8.138461134206572,-0.7196235973048029,4.35366694898055,9.257797991824754
1041,10.498452186584473,7.74390609264949,-0.6882425539548281,4.423494527275468,8.944778544921286
1042,10.507097244262695,7.285326819129535,-0.6244527677629147,4.420989835857221,8.544652084751473
1043,10.517353057861328,6.773728108767581,-0.5458341501753475,4.34831900364769,8.06778814598458
1044,10.52726125717163,6.220905728050341,-0.4642470519955327,4.21163175887675,7.526821073664189
1045,10.537543296813965,5.639164578729221,-0.38553177043226605,4.020428879978316,6.9363290198036776
1046,10.549134254455566,5.040998279425126,-0.30975882098438706,3.786486836640899,6.312297263627523
1047,10.557700157165527,4.438698215843711,-0.23190434258903472,3.5224803587507103,5.671304025815433
1048,10.572618007659912,3.8438299176887853,-0.14283245480608495,3.2405037634369678,5.0295421448790405
1049,10.577749252319336,3.2665220003439916,-0.03050344369592549,2.950733176934896,4.402036201608629
1050,10.587772130966188,2.7146004976118308,0.11864363520893517,2.660438789870535,3.8027709276865185
1051,10.59911012649536,2.192731093662469,0.31818400983693385,2.3734576520350887,3.246938856713202
1052,10.60803508758545,1.701818325815504,0.5801471268620753,2.090138804191036,2.7570702790594477
1053,10.618165016174316,1.2388837738139682,0.913505580288934,1.807714408885617,2.374269747592139
1054,10.628217220306396,0.7974977837322866,1.3228349018820567,1.521018018174867,2.167807810740569
1055,10.638333320617676,0.3686440208593439,1.8072525116663962,1.2234428418797076,2.2133396581606126
1056,10.649840116500854,-0.05823424719879996,2.3597018444257296,0.9080160673929953,2.5290466980221704
1057,10.658584117889404,-0.4942530189730779,2.9666074806104583,0.5684712626941542,3.060752451160828
1058,10.673174142837524,-0.9503073669260808,3.607917697469392,0.2002224610076932,3.7363408887892975
1059,10.678574085235596,-1.4365017260951696,4.257576047684249,-0.19883342283699523,4.497780090325238
1060,10.688607215881348,-1.9617311699847486,4.88449608461891,-0.6277406445530379,5.301014006845393
1061,10.700031280517578,-2.5333503304176204,5.454110822807713,-1.082168491207225,6.1103418404748036
1062,10.70888328552246,-3.156888749946316,5.930506477775321,-1.554355738547337,6.895859295579319
1063,10.719050168991089,-3.8357745315772664,6.279045439820838,-2.0332841561483446,7.6337292558798255
1064,10.729011058807371,-4.571000862848933,6.46926999066439,-2.505039430575641,8.307871306719626
1065,10.739156246185305,-5.360645384761462,6.477769323947495,-2.9533422274471204,8.911803670854843
1066,10.750535011291504,-6.199174060028666,6.290629243567553,-3.3602885410526584,9.449513976162445
1067,10.76654815673828,-7.076540967739854,5.905161758276439,-3.7073918366467717,9.934441186596562
1068,10.772984981536863,-7.977196751862766,5.330833380638045,-3.976992253991283,10.386044479895192
1069,10.7793550491333,-8.879191714230588,4.589506031297791,-4.153957794138062,10.82400002147359
1070,10.78947401046753,-9.753601102101332,3.7151155349112006,-4.22745170273109,11.260824383479871
1071,10.800800323486328,-10.56453987681899,2.7527663724369957,-4.192483936553615,11.694620432847689
1072,10.809997081756592,-11.270079367178006,1.7570594592172035,-4.050936104858907,12.104215390159144
1073,10.819764137268066,-11.824398910987728,0.7893980616271458,-3.811684902456861,12.448634491440659
1074,10.829843044281006,-12.181433959412537,-0.08593245208660245,-3.4895126306748208,12.671677714236962
1075,10.839874267578123,-12.300028677967912,-0.8069199449460758,-3.1028760649651272,12.711005670320437
1076,10.851294040679932,-12.150146087923916,-1.3198699939413803,-2.6711998645072734,12.510132512285525
1077,10.866332054138184,-11.719172611136003,-1.5855826785815526,-2.212745017839406,12.031181140444657
1078,10.872579097747805,-11.017009654373762,-1.5846593992624218,-1.7438727741288573,11.26617678667361
1079,10.880284309387209,-10.078621335230904,-1.321000293329925,-1.2797763681958623,10.245070880503556
1080,10.89020013809204,-8.963030604382993,-0.8228738411315902,-0.8360750221300779,9.039472352751273
1081,10.901572227478027,-7.748408378578766,-0.14139118382848417,-0.43047838894445634,7.761645154955375
1082,10.910304069519045,-6.523784169297468,0.6533296760124505,-0.08382237928818795,6.556952473855847
1083,10.92059326171875,-5.378769062937673,1.4778532935869457,0.1804132593903213,5.58101746404229
1084,10.930630207061768,-4.393154383753009,2.242893691056217,0.33928538652332757,4.944238275242845
1085,10.9407000541687,-3.628039038005117,2.8629110583511554,0.37635381952725017,4.6368706243318
1086,10.95370101928711,-3.1193876119924333,3.267574754611764,0.28783849517385746,4.5266405700178955
1087,10.96659803390503,-2.8743244706298627,3.4130230855410186,0.08529020766892513,4.4629297736376925
1088,10.973082065582275,-2.870607365574683,3.289227433238962,-0.206304342712961,4.370579508107091
1089,10.981138229370115,-3.060082846567242,2.9202206120202896,-0.5529779012191756,4.265862164904065
1090,10.991111278533936,-3.3762824413884567,2.3570535306187352,-0.916623795337744,4.218433791398131
1091,11.002354145050049,-3.74466387693018,1.6668190722728922,-1.2594777360830363,4.288015571166607
1092,11.011348247528076,-4.092901572235584,0.921861731785007,-1.5482169479662555,4.47198479989681
1093,11.021363258361816,-4.359093859653229,0.19131929561832198,-1.7577351925266975,4.704033945156991
1094,11.031442165374756,-4.4971117177053435,-0.46512521044830596,-1.8743066651166058,4.894219114201756
1095,11.04152011871338,-4.4793862746383635,-1.0020384771746955,-1.89691551443949,4.9666156460993
1096,11.05408215522766,-4.297722422991426,-1.3914549662403124,-1.8354895961808197,4.876021637138842
1097,11.06627607345581,-3.9624536345767796,-1.6237574806359323,-1.7067597491811897,4.609843381668939
1098,11.072365283966064,-3.499887492114408,-1.7060481903441498,-1.5301828573333907,4.1834522182179175
1099,11.081834316253662,-2.947964724337794,-1.658640801700189,-1.3254118712702978,3.6329467314438957
1100,11.091874122619627,-2.3505119348439796,-1.5104632857418634,-1.110799336353961,3.0067059814791492
1101,11.103145122528076,-1.751059011266242,-1.2941092803245406,-0.9020656162859337,2.356830258301206
1102,11.11204719543457,-1.1874114497695707,-1.041334825913439,-0.7111510653453215,1.7320681304284284
1103,11.122120141983032,-0.6878914248766311,-0.7796714672544222,-0.5456557369836055,1.174232682466549
1104,11.132230281829834,-0.2696413885239491,-0.5304453530846652,-0.40895483434669894,0.7220268745343033
1105,11.142346143722534,0.061106482616847146,-0.30813461322238234,-0.30080548107327126,0.43493089051851946
1106,11.154733180999756,0.30722900921095736,-0.12079853124473586,-0.2182425510807103,0.39574203763796484
1107,11.166365146636965,0.477975897246393,0.028781422060458646,-0.1565989093229376,0.5037981212801913
1108,11.172468185424805,0.5859279275106261,0.14162626230324796,-0.11051253842612742,0.6128479057321418
1109,11.182631969451904,0.644240003560628,0.22108230593534603,-0.07481342553907071,0.6852150150327837
1110,11.19307017326355,0.6646386801489184,0.2715950924336288,-0.04518946201100724,0.7194098670861916
1111,11.203935146331789,0.6564044372190054,0.2978759859647401,-0.018542483477028842,0.7210691450261626
1112,11.212944984436035,0.6262684917716907,0.30446459125798564,0.00697434978502072,0.6963903737637421
1113,11.222942113876345,0.578922624065294,0.2955773271115692,0.0321352871557224,0.6508072200257509
1114,11.233123302459717,0.5177731260894899,0.27509910252235564,0.05689059496801433,0.5890713590940431
1115,11.243370056152344,0.4456546476599696,0.24661223147587086,0.08057916123759269,0.5156730155051689
1116,11.25595998764038,0.3653604726508997,0.21341503848208546,0.10206295557986657,0.43525980807753967
1117,11.26675510406494,0.27995968685812384,0.1785273380650216,0.11979682933355087,0.35298826753966367
1118,11.273346185684204,0.19293631953213697,0.1447021300556142,0.13189525868523677,0.27488086346794727
1119,11.283501148223875,0.10820602906421968,0.11446625047982366,0.136285248921257,0.20829002928197374
1120,11.293459177017212,0.030054562780008138,0.09020465649703217,0.1310286933290068,0.16189093635269372
1121,11.304952144622805,-0.036981680788553725,0.07428325407105091,0.1148397395573815,0.1416820818979521
1122,11.313838005065918,-0.0882970672313122,0.06917065812222531,0.08769382812700995,0.14237682226500983
1123,11.323873043060305,-0.11947900162468619,0.0774869354029525,0.051296488359975745,0.15136309558620367
1124,11.333934307098389,-0.1266550483536576,0.10190924038361669,0.009185331504958361,0.1628231091211843
1125,11.343846321105955,-0.10688963728092454,0.14490872959462262,-0.03362370321289662,0.18317884126864659
1126,11.355355262756348,-0.058575175481570395,0.2083520255648609,-0.07140218249086495,0.2279032457077696
1127,11.3661789894104,0.018221221701717003,0.2930442182229164,-0.09876559370864425,0.30977664414026496
1128,11.374166011810305,0.12147650227167667,0.39831753185896984,-0.11181160528206086,0.4311788861553097
1129,11.38433599472046,0.24702966408700927,0.5217899606798866,-0.1090491199296198,0.5875203218295371
1130,11.394540309906006,0.388571031708902,0.6594224583783173,-0.09185314833676075,0.7708841846583694
1131,11.405676126480104,0.537905884523205,0.805972617786387,-0.06432598202808222,0.9711191652881792
1132,11.414610147476196,0.6855784039301176,0.9558763155390254,-0.03261088057076869,1.1767670746904124
1133,11.424614191055298,0.8218682969776347,1.104497608649542,-0.0038164229262615213,1.3767341900938708
1134,11.43466019630432,0.9380706747850904,1.2495752399978421,0.015243408630783667,1.5625771125976806
1135,11.444945096969604,1.0278648529411902,1.3925812615595228,0.019279880599647723,1.7309420671283204
1136,11.456106185913086,1.0884942520405165,1.539653781971209,0.005503581350299263,1.8855725375787509
1137,11.467304229736328,1.121474786531734,1.7018306842397422,-0.025881498690588384,2.0382843831567707
1138,11.474858283996582,1.132665716946115,1.8944690703292928,-0.0717734312241997,2.2084148410588726
1139,11.48513126373291,1.1317213391797463,2.1358784611945585,-0.12676474066053386,2.420503933073517
1140,11.495131015777588,1.1310885638143382,2.4452730482300953,-0.1840078209928961,2.7004778276776573
1141,11.50657606124878,1.1447783025437768,2.8402266410576034,-0.23613296841543197,3.0713455542027583
1142,11.515388011932371,1.1871326537030493,3.33393849200562,-0.2760654564448912,3.5497382920726532
1143,11.525515079498293,1.2717506005574544,3.9327132122164032,-0.2976827643742121,4.143935065582614
1144,11.53562617301941,1.410634131275395,4.634013924593016,-0.29637185738218125,4.853020707094625
1145,11.545701026916504,1.6135120498048703,5.425257675240521,-0.2696108908917076,5.666527332512313
1146,11.55731725692749,1.8872564449072533,6.28332445679652,-0.21760216118505682,6.564240536328148
1147,11.567198276519775,2.2353613264116365,7.17470475382091,-0.14372854694837348,7.516241511508597
1148,11.576305150985718,2.6575425926543574,8.05634341373406,-0.05437078283828519,8.48352273609346
1149,11.586143016815186,3.149548562333593,8.877450704742074,0.04234616613435086,9.419691096814663
1150,11.596110105514526,3.703234315036858,9.582656487986574,0.13886700012610795,10.2742656089154
1151,11.60749101638794,4.30691209716572,10.116665285678959,0.23085086751588793,10.99771341862512
1152,11.61672830581665,4.945963453415749,10.430016938414573,0.31894315155241154,11.547706809235388
1153,11.62661910057068,5.603654867222093,10.485017480211756,0.40878407157159447,11.89553041475909
1154,11.63658618927002,6.262042829738609,10.260791916810515,0.5093385250007465,12.031477751906232
1155,11.64647626876831,6.902864099064445,9.756695886709991,0.6304610202191794,11.968296808398105
1156,11.6578631401062,7.508402651056123,8.993611650846727,0.7806861507782558,11.741832555553225
1157,11.667441129684448,8.06237516500401,8.012805172395247,0.9657114449499676,11.407871783419763
1158,11.676674127578735,8.55080209516987,6.872224097059497,1.187460875197145,11.034207893686371
1159,11.686753273010254,8.962734301020548,5.64048225302089,1.4434601330366796,10.687807228473021
1160,11.696828126907349,9.29064993497854,4.389320425499359,1.7267157335884735,10.419398122571408
1161,11.708144187927246,9.530287610620588,3.1859331706312193,2.0267371669997085,10.251059245413353
1162,11.717055320739746,9.67976336474586,2.0867060480690256,2.331661060597443,10.172944717731948
1163,11.72697925567627,9.738260168807294,1.1332715534782145,2.6301781393210972,10.150657740947834
1164,11.737211227416992,9.705127782056401,0.35091173057227576,2.9121401805796845,10.138698375040207
1165,11.748792171478271,9.580119378215924,-0.25102959728037516,3.1682179361133693,10.093528027914198
1166,11.758836269378662,9.364601958220533,-0.6770413553697376,3.3896137786347147,9.982165917329718
1167,11.76832103729248,9.062857021381733,-0.9421178432585976,3.5681999629672205,9.785449115718382
1168,11.777305126190186,8.682680451421616,-1.0679839330154766,3.696902353281466,9.49718992715089
1169,11.787559032440186,8.235016558046064,-1.0796768263436782,3.770141187413628,9.121138324445532
1170,11.797737121582031,7.732792948553468,-1.0029550672298135,3.7842487663911175,8.667326253119407
1171,11.809473991394045,7.189358308719825,-0.8625810029455384,3.7378120394876047,8.148751911816914
1172,11.817799091339111,6.617011385360715,-0.68123491183273,3.6318876006433447,7.578887004224297
1173,11.828010082244871,6.026042362809831,-0.4787194237198556,3.4700391740819247,6.9701887144243475
1174,11.837900161743164,5.4245054167532185,-0.2711913138056872,3.2581554271686954,6.333591440301268
1175,11.84943914413452,4.8186773121654225,-0.07035981609418035,3.0040297937330553,5.678802386431003
1176,11.866559028625488,4.213920102357679,0.11721712355275371,2.716726765889385,5.0151238074057485
1177,11.868653297424316,3.6155432185862235,0.2905409811417067,2.4058040499308397,4.352523400724142
1178,11.878305196762083,3.0293068323520993,0.45413762520917633,2.080481542884423,3.7028832438315535
1179,11.888378143310549,2.461388521808445,0.6175129255047204,1.7488308741797254,3.081909326203479
1180,11.898478031158447,1.9178380263465955,0.7940970017093723,1.417038614198612,2.513302842387829
1181,11.910330295562744,1.4036823865704198,0.9997278463536665,1.0888291530926688,2.038462394494308
1182,11.918676137924194,0.9219067864065563,1.2507746042748902,0.7651887648909549,1.7320112815558728
1183,11.928729057312012,0.4725551834311719,1.5620398876905126,0.44450863504362126,1.69140915770023
1184,11.938753128051758,0.05217673336410011,1.9446095818613294,0.12314390964477198,1.9492032371854
1185,11.950214147567747,-0.3462308869579207,2.403844656354747,-0.20373900054197994,2.4371816795862355
1186,11.967633247375488,-0.732760180550867,2.9377206624011976,-0.5412085356120797,3.075718916207923
1187,11.969748973846436,-1.1197305027849414,3.5356994882436137,-0.8936694566100795,3.814919706587666
1188,11.979094982147217,-1.5206216477496044,4.178274034173528,-1.2641180666916234,4.622581376978626
1189,11.989158153533936,-1.9490017790958574,4.837285052472081,-1.653582448892977,5.471039163547958
1190,11.99932098388672,-2.4175745796436257,5.4770813188325365,-2.060733585471982,6.331643509511225
1191,12.010882139205933,-2.93736956562144,6.056568711254427,-2.481614685940062,7.1741602971120315
1192,12.019489288330078,-3.517016309691409,6.532148828421746,-2.909398247109978,7.968875089971832
1193,12.029630184173584,-4.162013369840334,6.861463633100893,-3.3341085653181417,8.69012764028375
1194,12.039583206176758,-4.8739411287797925,7.0077108944435285,-3.742403713956174,9.320348687959411
1195,12.051095008850098,-5.649648567557718,6.944045246964625,-4.117711981210166,9.853620922737019
1196,12.068305015563965,-6.480509100576494,6.657310632746519,-4.441075161902097,10.297569211090467
1197,12.070411205291748,-7.351844660824202,6.150308589730556,-4.692857759936589,10.672339463341665
1198,12.079913139343262,-8.242566567145081,5.442169068370043,-4.855114198899403,11.00587305337001
1199,12.09001398086548,-9.125045585056867,4.5669827122473095,-4.914112368452688,11.325735666750806
1200,12.100342273712158,-9.965272142659666,3.5712760725307615,-4.862493077372409,11.649227467561706
1201,12.11135721206665,-10.723493010989277,2.5109305080766693,-4.700676771793893,11.974741604143643
1202,12.120337009429932,-11.355649392644057,1.4478645139777848,-4.437171158434362,12.277441617402838
1203,12.130441188812256,-11.81600387276415,0.4464737523452286,-4.087488162525376,12.510989002133112
1204,12.140474319458008,-12.06120980605048,-0.4303534326260205,-3.671716460747209,12.615050052642014
1205,12.15060019493103,-12.055692451594807,-1.1257633032077496,-3.211356433863864,12.52676628853624
1206,12.168428182601929,-11.777689983471433,-1.5938477679465135,-2.7264391778956916,12.193760808090174
1207,12.170679092407228,-11.224851354029882,-1.804459376266087,-2.2338860385829813,11.586354404817635
1208,12.180800199508669,-10.418082628599084,-1.7472535133877283,-1.7474693679246316,10.707146664177094
1209,12.190936088562012,-9.402486090468459,-1.4342197649418964,-1.27899337353394,9.596851309942577
1210,12.201032161712646,-8.244757395449215,-0.9000251056672872,-0.8399744426596257,8.33616379187497
1211,12.212198257446287,-7.027129818604284,-0.19977738594702985,-0.4432432564569236,7.043928525748103
1212,12.221124172210692,-5.838642606265049,0.5956407079322724,-0.10409770797029437,5.86986981707808
1213,12.231234073638916,-4.765067819127971,1.4060217041654317,0.15944261651004024,4.9707333766188695
1214,12.241308212280272,-3.8791722540504674,2.1494437014436203,0.3280751323256061,4.446989868969919
1215,12.251444101333618,-3.2327959471872596,2.75089671366819,0.38509104851843495,4.262240898995485
1216,12.26863431930542,-2.8514514715005057,3.1517219221099553,0.32200018137447917,4.262371486090351
1217,12.271522998809814,-2.7316416138099444,3.318211505352012,0.1431092561313115,4.300334145126297
1218,12.281575202941896,-2.8415507914811795,3.246080757646474,-0.13377953714845778,4.316172859176249
1219,12.291690111160278,-3.126127077269794,2.9583919498184064,-0.4805545122266534,4.33078354010116
1220,12.301772117614746,-3.5162894005873047,2.4980083738624272,-0.8632855323440232,4.398817897449716
1221,12.313217163085938,-3.939805180987197,1.918214012667257,-1.2458623811068648,4.555632001729711
1222,12.32193112373352,-4.3305794190584175,1.274637996164052,-1.5927982752832262,4.78702689273652
1223,12.332067966461182,-4.634397810460414,0.6199048714563703,-1.8723295352760647,5.036620196513006
1224,12.342061042785645,-4.8112378821883075,0.0010291437471260344,-2.0603227136498083,5.233826583153285
1225,12.352241039276125,-4.835563319084786,-0.5418163912068972,-2.144214010388877,5.317319939312162
1226,12.368274211883543,-4.696037989118935,-0.977044850850621,-2.125094329400941,5.246276331330057
1227,12.372331142425535,-4.395350771913554,-1.2842820488021873,-2.0161441757975265,5.003331502772818
1228,12.382352113723757,-3.9500146478647684,-1.456403423435272,-1.8378595062301046,4.593631919819064
1229,12.39283800125122,-3.389384939541274,-1.4996156095454845,-1.612935361927648,4.042070970002674
1230,12.402525186538696,-2.7530134090766287,-1.431500282736466,-1.3630787771384076,3.3891384808997462
1231,12.413875102996826,-2.0860879313658844,-1.2776081638456063,-1.1074903443854105,2.6852523793160024
1232,12.422720193862917,-1.4337133327605385,-1.067280870096587,-0.8618968977121042,1.9843106204662635
1233,12.432907104492188,-0.8353672258355295,-0.8295064578571488,-0.6379307100796996,1.338982806644526
1234,12.443161010742188,-0.32072421422515685,-0.589594495081498,-0.4431088881924692,0.8042581532169363
1235,12.453095197677612,0.092496353766089,-0.36710258735478224,-0.28133245624041864,0.4716649616378813
1236,12.468603134155272,0.3985720304362773,-0.1750537036976022,-0.15360870771054558,0.4616265782088901
1237,12.473042011260986,0.602067722803995,-0.020246578115436894,-0.05877182737309995,0.6052682004372493
1238,12.483242988586426,0.7150151069713665,0.09568133518084684,0.005920982232534315,0.7214129047430897
1239,12.493340015411375,0.753711660281214,0.17483872702416148,0.04432896960335121,0.7749934869773992
1240,12.503355026245115,0.7357856494813682,0.22166297748088498,0.0610071649745256,0.7708676097402453
1241,12.514710187911987,0.6779736029402044,0.24173644176841216,0.06075501635511572,0.7223405606601953
1242,12.523555278778076,0.5948069028260675,0.24094958498748661,0.048188814926960054,0.6435636068324916
1243,12.533619165420532,0.49815430239923536,0.2250115128670411,0.027433459059665117,0.5473029184990353
1244,12.544926166534424,0.3973703448011875,0.19922425561629,0.0019428984499709327,0.44451914447824
1245,12.553843021392822,0.29972178194162186,0.1684044747343658,-0.02561749259358152,0.344745514267555
1246,12.5678231716156,0.21082754623749642,0.13686092962750088,-0.05347450797312258,0.2569799434080313
1247,12.57392716407776,0.13498573034664466,0.10838808887748995,-0.0808264818105827,0.19105508464735552
1248,12.5839581489563,0.07537801032838662,0.08626995487651633,-0.10784712930155832,0.1573383387927099
1249,12.594014167785645,0.03419460157526422,0.0732921031728464,-0.13553562577782494,0.15783190114605103
1250,12.604223251342772,0.012724112607138495,0.07176091854062075,-0.16533536663832354,0.18068568270026714
1251,12.615491151809692,0.011431523424816497,0.08353600098238395,-0.1985048752062104,0.21566902575143734
1252,12.62436819076538,0.030018716640681717,0.11007117171634606,-0.23534495056082866,0.26154164476473296
1253,12.634531021118164,0.06744054988813993,0.15243206057957093,-0.2745177191186104,0.32115998968089554
1254,12.645726203918455,0.12186799472251968,0.21125418091459428,-0.3127385731688861,0.39659242584710935
1255,12.654670238494871,0.1906475792087092,0.2866422638617074,-0.3450140124804334,0.4873858386307037
1256,12.668199062347412,0.270339960751628,0.3780558493891555,-0.3654120060957946,0.5912155730657817
1257,12.674808025360107,0.35688619515242603,0.4842472515882288,-0.3682105735741837,0.7052958127289274
1258,12.684868097305298,0.4458857387284336,0.60332606492289,-0.34918770623176887,0.8274953092315052
1259,12.694962978363035,0.5329395950996306,0.7330271123809677,-0.3067646267340383,0.9567956394788868
1260,12.705130100250244,0.6140344827294996,0.8712331210724299,-0.24272944361380977,1.0931619642265098
1261,12.716423034667969,0.6859874314259081,1.0167408946650658,-0.16235421823759286,1.2372144903524906
1262,12.72515630722046,0.7469819723526674,1.1701849222547416,-0.07381360166796608,1.3902385648094409
1263,12.735291004180908,0.7971653548142479,1.3349614838222028,0.013076049191374096,1.5549166374012977
1264,12.746801137924194,0.8391564242002519,1.5179237824466099,0.08857648962986912,1.7366985657012348
1265,12.75539517402649,0.8782329985024033,1.7295592410404717,0.1447442103289287,1.9451527586158266
1266,12.768132209777832,0.922022247023481,1.9833895429351511,0.1766094043965643,2.194345001304956
1267,12.77554416656494,0.9796905516820845,2.2945141022439564,0.18250068105395667,2.501578509868658
1268,12.785665035247805,1.0608092995052119,2.6774656606813427,0.16356146553737191,2.884595480661587
1269,12.7958722114563,1.174168271967783,3.1437160627195775,0.12276928709274582,3.3580789317331647
1270,12.805811166763306,1.3268069876913788,3.699237754500421,0.06386445626351517,3.9305032013320917
1271,12.817370176315308,1.5234709874177295,4.342541243865186,-0.009442026436754387,4.602034056375178
1272,12.826425075531006,1.7665910368641768,5.0635492895477725,-0.09379285192565022,5.363690184777728
1273,12.836151123046877,2.0567264656033486,5.843492652252596,-0.1861117286138776,6.197674378891728
1274,12.847440242767334,2.3932579237079707,6.655753313790669,-0.28332371443437476,7.078630375333024
1275,12.856375217437744,2.7750519505974327,7.467345968093204,-0.38196007521889525,7.975466295758115
1276,12.867985248565674,3.2008605119941875,8.240679220479329,-0.4776272429673258,8.853385217830978
1277,12.876909255981444,3.669293038136279,8.935456983588857,-0.5643813715350806,9.67598208130927
1278,12.886452198028564,4.178311150602187,9.510847629429088,-0.6342170958876995,10.407532754028676
1279,12.89657211303711,4.72438356014821,9.92802832600185,-0.6769852947756518,11.015618709570347
1280,12.906682014465332,5.301598261621691,10.152956583361087,-0.6810223855881963,11.47402557958268
1281,12.917956113815308,5.901025447039961,10.159113187446696,-0.6345659768290643,11.765728029362041
1282,12.92691421508789,6.510492429413792,9.930113570019357,-0.5276476913555848,11.885793169710205
1283,12.936971187591553,7.114809733942392,9.462181834089446,-0.3538125492124098,11.843926119811533
1284,12.949717044830322,7.696440649111541,8.766282326666579,-0.11113020939320613,11.665987074378364
1285,12.95698308944702,8.236601053350244,7.869363156419744,0.19741242831018324,11.393307029415041
1286,12.968249320983888,8.716760750448998,6.813965965217551,0.5635751627529774,11.078342255039034
1287,12.977034091949465,9.120453186175183,5.655552049057684,0.9733049895318634,10.775678999648294
1288,12.987316131591797,9.435117482675519,4.45739307547572,1.406472441840202,10.529385531494421
1289,12.997453212738035,9.653387936583886,3.2837709674799873,1.8380370247233904,10.360957027480703
1290,13.007431983947754,9.773093108596969,2.193074381972023,2.2414345411955563,10.263866374648106
1291,13.018891096115112,9.795707738623536,1.2323955268819942,2.5933864379024505,10.207856878478664
1292,13.027571201324465,9.724109894622194,0.434303857206793,2.877944171955892,10.150344611882339
1293,13.037734985351562,9.561207546457231,-0.1844412957859129,3.0882181986861035,10.049268629145006
1294,13.0506911277771,9.31027501471383,-0.6225889178059367,3.2259052442852156,9.872958141068269
1295,13.057926177978516,8.976314187981297,-0.8925768362416681,3.299352591071157,9.605031875540938
1296,13.069180011749268,8.567097843382081,-1.0173664551371926,3.3207907626229005,9.244341580190659
1297,13.07813024520874,8.093183309703672,-1.0265240121725592,3.3035018168198755,8.801505092071762
1298,13.088080167770386,7.567072803029845,-0.9522914901672674,3.2596553188400614,8.294142673371447
1299,13.098271131515505,7.002047017720439,-0.826135590378636,3.199032744441609,7.742413896974739
1300,13.108267307281494,6.411091346479534,-0.6759675551192461,3.1284218672673685,7.165615658690836
1301,13.119615077972412,5.806102326940159,-0.5241021339734476,3.051425644825234,6.58002323275781
1302,13.128512144088743,5.197376558416618,-0.38598144541910384,2.968582576242889,5.99784855411999
1303,13.138573169708252,4.593302742451769,-0.2696448697894631,2.8777885120396034,5.427043869331244
1304,13.148606300354004,4.0002014566816815,-0.1758871240478972,2.775002284944105,4.871671751656621
1305,13.15871810913086,3.422324064279361,-0.09901008537910849,2.6551577377562694,4.332662877529173
1306,13.169997215270996,2.862046793713724,-0.02802283906960943,2.5131254867774127,3.8089233178428175
1307,13.178845167160034,2.320241485824896,0.05189600638242822,2.34450483331558,3.2989265923117297
1308,13.188913106918337,1.7967045214155362,0.15784360045204032,2.1460376523780837,2.8033086424621767
1309,13.198962211608888,1.2904585856807407,0.3076346992522772,1.9155578072317712,2.330082441113998
1310,13.20905828475952,0.799779956043848,0.5182259808537523,1.6515725647018542,1.9068031051467254
1311,13.22050428390503,0.3219490567480978,0.8040564747675883,1.3527007947813452,1.606224595116995
1312,13.229290008544922,-0.1471166796909571,1.175287539956592,1.0172031854443044,1.5612963970683305
1313,13.23937702178955,-0.613127872460006,1.6360454730575809,0.642780380250055,1.8616490526234912
1314,13.249463081359863,-1.0834406287062206,2.182866283348535,0.22675106342808632,2.4474813281569574
1315,13.266458988189695,-1.5668111147625732,2.8035563531355874,-0.2333450176851322,3.220135896484639
1316,13.27092218399048,-2.0729504845615194,3.476637874920376,-0.7387545257545611,4.114595104514848
1317,13.279703140258787,-2.6119353381079993,4.171510322337058,-1.2882396705486763,5.087559928747507
1318,13.289692163467407,-3.1934812049323837,4.849464272700459,-1.8767195630342475,6.102270254317653
1319,13.299898147583008,-3.8260569181280593,5.465702138416883,-2.494121998510935,7.122728125522316
1320,13.310225009918211,-4.515827893158332,5.972485278936233,-3.124817427850241,8.113431205423106
1321,13.321393013000488,-5.265458822654761,6.323383127538323,-3.7478968934056547,9.041955646557273
1322,13.330190181732178,-6.072860819127487,6.478342842590192,-4.338208791757506,9.88274354799898
1323,13.341598987579346,-6.930005953110191,6.4089920143275,-4.867741228835226,10.620502145414719
1324,13.350182056427002,-7.8219238254915595,6.103343884118987,-5.307061020192702,11.251586358005433
1325,13.360167026519775,-8.725953838641221,5.5690292807943385,-5.627073326308276,11.78220317869677
1326,13.371567249298096,-9.611339197823105,4.834426739660374,-5.801620795211914,12.223269895089016
1327,13.380606174468994,-10.439372288303387,3.947501657763507,-5.8109189147335165,12.582926596998414
1328,13.39048719406128,-11.164451251961186,2.972523274792645,-5.645056670620824,12.858753096281239
1329,13.400617122650146,-11.736446674818936,1.9849609734855165,-5.3064854608400465,13.032384224048792
1330,13.410580158233644,-12.104675068441644,1.0648797386278823,-4.810600220045177,13.069009214450483
1331,13.422063112258911,-12.223565125974984,0.28922350832886595,-4.184036714601029,12.92305528332411
1332,13.43093729019165,-12.059730276124965,-0.2764306469783496,-3.4612064310364734,12.549639763504059
1333,13.442293167114258,-11.599556459355265,-0.5857704410299309,-2.6805065680888944,11.919645654335643
1334,13.451418161392212,-10.85573686944698,-0.6181851151550798,-1.8817556085228277,11.034952649897368
1335,13.461114168167114,-9.870811772839893,-0.38264789992014653,-1.1053828583394303,9.939880066361898
1336,13.472453117370604,-8.715981967928775,0.08173825551581852,-0.3924990746712352,8.725197896397084
1337,13.481289148330688,-7.484362573643504,0.7088159701756316,0.2156753370406297,7.520945357090373
1338,13.491337299346924,-6.279372559699546,1.411892837668363,0.6802050825436977,6.471988881548324
1339,13.5015230178833,-5.200514169795009,2.0934761035914202,0.9691165210118194,5.689215820993702
1340,13.511635303497314,-4.329388830986999,2.6581435014564168,1.0637209109544548,5.190456309479131
1341,13.522890090942385,-3.718292070110015,3.0275246345838056,0.9642236843964022,4.890943533226059
1342,13.531826972961426,-3.3832019696733484,3.1537521094795644,0.6915231065995131,4.676581245162909
1343,13.550544261932371,-3.3029079872681115,3.026083861486918,0.2841595178213661,4.48855559625583
1344,13.552674293518066,-3.425216526835748,2.668151473379928,-0.2076241980086444,4.346751470720055
1345,13.562019109725952,-3.6787968704860754,2.128613989637972,-0.7281655912742888,4.312165240282017
1346,13.573254108428957,-3.9868790298397307,1.470189319654529,-1.222152898314194,4.4215742378772545
1347,13.58220911026001,-4.278814908051347,0.7600789978647886,-1.6403287145008636,4.645067856552114
1348,13.59218406677246,-4.497409863238607,0.06247229946109189,-1.9453892706171592,4.900524225058807
1349,13.602392196655272,-4.602139189582167,-0.5671407631678024,-2.117229874247472,5.097449961102171
1350,13.61237096786499,-4.569519325744311,-1.0862279232421705,-2.1553730845144106,5.167787834560443
1351,13.623857975006104,-4.391998195181887,-1.467898825311733,-2.076523731031123,5.075069055034417
1352,13.632606029510498,-4.07632957448266,-1.7014992266772238,-1.9079784577829735,4.81164672576334
1353,13.65044116973877,-3.6417461169105234,-1.7911816630583668,-1.6804995622637746,4.392576158574618
1354,13.65251398086548,-3.1176034785252758,-1.753192775283786,-1.423554794502538,3.8496291522134087
1355,13.66277313232422,-2.5400690327220974,-1.6124813966397833,-1.162825439002964,3.2255557578649285
1356,13.6741361618042,-1.9479386197955968,-1.3988747543461901,-0.9186388800914088,2.5681146463610003
1357,13.683067321777344,-1.3781984314005413,-1.143169459410944,-0.7049185114651635,1.924364164354316
1358,13.69332718849182,-0.8620761473269178,-0.8737017935025913,-0.5289881302588973,1.3365472493385597
1359,13.7031831741333,-0.4221572362493162,-0.6138455662925011,-0.39231571522749337,0.8419826196478654
1360,13.71336030960083,-0.07092352289530227,-0.3806044836362568,-0.2919195757851604,0.4848782917294712
1361,13.724528312683104,0.18916750587033093,-0.18427785899327734,-0.22208464340813533,0.34505689882984014
1362,13.733435153961182,0.3642295925332954,-0.029035669421030884,-0.17600056794199323,0.405564379712521
1363,13.749717235565186,0.46652766864470163,0.0858857157453239,-0.14698931568125398,0.4966188485192547
1364,13.75353217124939,0.511624781251148,0.16468965507417443,-0.12925309969543244,0.5528010157910466
1365,13.763694286346436,0.5156683749579103,0.21352389648472583,-0.11825976215902168,0.5705187978039464
1366,13.775005102157593,0.4933133820467013,0.23923571106281463,-0.11083253669634148,0.559352902508453
1367,13.783842086791992,0.4565456955127446,0.24852389570162373,-0.10495916277160566,0.5302966383786
1368,13.793620109558104,0.41435847822311145,0.24748296998197503,-0.09940546665572018,0.49276994196837265
1369,13.80400013923645,0.37300316392289873,0.24142640481882627,-0.09329274749925658,0.4540061739406158
1370,13.814011096954346,0.3364754521683426,0.23484767168557324,-0.08581656175889114,0.41920596498635726
1371,13.825484275817873,0.3069940700319273,0.23141141725105432,-0.07623318123040206,0.39192869375616884
1372,13.83422327041626,0.28540474757519907,0.23394015911030488,-0.0640818364062008,0.374553533877614
1373,13.849750995635986,0.2715737139709787,0.24443904217793502,-0.04943213133991239,0.3687089137377391
1374,13.854485034942629,0.26484662311121054,0.2642241037361384,-0.032916480297797625,0.37555506313159
1375,13.864463090896606,0.26456150099635917,0.29415719849872185,-0.015460994508116522,0.3959296497980961
1376,13.875678062438965,0.27050346696602295,0.33489299053143456,0.0021713685283619166,0.4304998903472703
1377,13.884610176086426,0.2831543074765882,0.3870087308649665,0.01982298096918426,0.4799427780295928
1378,13.894500255584717,0.30364099134830624,0.45094639311110724,0.03820132893628658,0.5449860939688258
1379,13.904754161834717,0.33337906613198254,0.5267773351440563,0.05882623124633306,0.6261760838926645
1380,13.914738178253174,0.3734971207270786,0.6138588489150322,0.08358592432285154,0.7234012664680728
1381,13.926696300506592,0.4242109470866766,0.7105201183223142,0.11401289411923292,0.8353398746584374
1382,13.934938192367554,0.48435609506475813,0.8139621049553047,0.15056711310250992,0.9590649564433451
1383,13.94987416267395,0.5512332473593621,0.9205046272457027,0.19213016179628473,1.090000394883857
1384,13.95495319366455,0.6208159511285554,1.0261969708381247,0.23573854509818354,1.2223196512279446
1385,13.965211153030396,0.6883081121600727,1.1277238483602567,0.2766037611271878,1.3498291655226364
1386,13.976744174957275,0.7490101053677201,1.223494782663123,0.30857000905341236,1.4673687578908272
1387,13.985390186309814,0.7993772109969941,1.3147437095413743,0.3250893609061599,1.572653184848561
1388,13.995487213134766,0.8380398423194174,1.406400182386803,0.3205502444571271,1.6682400035827911
1389,14.005717277526855,0.8665072043436101,1.5074985252592101,0.2916103189076701,1.7630720679914096
1390,14.015737056732178,0.8893367875209538,1.630957779889295,0.2381876097663636,1.8728792109652244
1391,14.027684211730955,0.9136678568232106,1.7926427330766264,0.16383965559179492,2.0187125485786215
1392,14.03591012954712,0.9481706376596316,2.009745634668827,0.07536709561896346,2.2234624515139254
1393,14.05134415626526,1.0016484860338999,2.298720246969547,-0.018287626972258483,2.5075384146014623
1394,14.0559561252594,1.0816633369889155,2.673127337961196,-0.10752622073044175,2.885683147486237
1395,14.066189289093018,1.1935616344312998,3.14173100154813,-0.18359956173079808,3.365824098247363
1396,14.077795028686523,1.3401619097288113,3.7070881640556763,-0.23986941987707086,3.949186490780326
1397,14.086390018463137,1.5221586903516142,4.364775182334932,-0.27261909124073713,4.630610180078733
1398,14.096220016479492,1.7390686407224207,5.103277329741328,-0.28121465641121085,5.398785134118266
1399,14.106415271759031,1.9903880075720133,5.904406341820705,-0.2675367460008194,6.23660441109421
1400,14.116517066955566,2.276581999677676,6.7440091359250385,-0.23485344381549306,7.121772319217231
1401,14.128405094146729,2.5995731665814543,7.592809519223103,-0.18651630800068064,8.027660018757988
1402,14.13810110092163,2.9625504319640545,8.41736793557208,-0.12488136506599476,8.924370195149244
1403,14.151860237121582,3.3691508199232265,9.181180576070465,-0.050728594307970276,9.77997072634082
1404,14.156679153442385,3.822227853243773,9.845984018893013,0.03671934020809305,10.561921007674428
1405,14.166882038116457,4.322457790025071,10.37344323506702,0.13932082380786392,11.238833399853059
1406,14.178141117095947,4.8670524246057205,10.727376997483246,0.25948810663511646,11.782705573317113
1407,14.18709421157837,5.44885082972066,10.876542700016612,0.39997890964852917,12.171653116894015
1408,14.19709825515747,6.055954059879637,10.797912770280576,0.5639305696422181,12.393043107216966
1409,14.207235097885132,6.67190906655241,10.480188380407595,0.7547157561660717,12.446618615261736
1410,14.217345237731934,7.276403245757452,9.92696010047444,0.9753523437413875,12.346736136555398
1411,14.228609085083008,7.846513712429343,9.158635456724868,1.2275128679763907,12.122506700743344
1412,14.23882818222046,8.35860998377226,8.212160025403511,1.510268431962707,11.814687633629413
1413,14.253076076507568,8.790867766705205,7.137897917964639,1.8187910074380789,11.468955641544618
1414,14.257549285888672,9.125999395237157,5.994012377398766,2.1436572371603737,11.12687358123155
1415,14.26763105392456,9.353400697201142,4.839844541838154,2.4717130163573944,10.817558182269876
1416,14.278797149658203,9.469787638289008,3.730129637766589,2.7886534569263537,10.55307221294649
1417,14.287792205810549,9.47799876097141,2.7109998411740723,3.0819060026211833,10.328607130722608
1418,14.297985076904297,9.384818591808912,1.8175102152690015,3.342199754366582,10.126621479143843
1419,14.308094024658203,9.199244034822348,1.072096413594547,3.5636795526302447,9.923471846389837
1420,14.318143129348757,8.931832630597594,0.48390068468338415,3.7432871142147093,9.696596951152031
1421,14.329874038696287,8.594627209836384,0.04931830065503026,3.879759843623177,9.429877285258296
1422,14.33980917930603,8.200889394211005,-0.24607363955041647,3.972478682205157,9.115685710506838
1423,14.354833126068115,7.764364586551924,-0.4244903613728584,4.020671428599669,8.753933300897248
1424,14.3583881855011,7.2982540987116025,-0.5123328803744147,4.023281337427341,8.349478462141487
1425,14.368540287017822,6.814183279426035,-0.5364931296061491,3.979317801282691,7.909228079106662
1426,14.379767179489136,6.321370291667039,-0.5210011096625354,3.888322364523632,7.439772532214602
1427,14.388611316680908,5.826090683403433,-0.48440923342191045,3.7507168266401996,6.945924104847865
1428,14.39870810508728,5.331475726079552,-0.4382087279277324,3.5679573213582305,6.430161720675564
1429,14.408915042877195,4.837676705645,-0.3863816522865772,3.3424896101131445,5.8927619571197924
1430,14.418896198272703,4.342417809733545,-0.32598251550348495,3.0775512535678673,5.332370837914615
1431,14.430386066436768,3.84189101817343,-0.24848477733420252,2.7769066717919366,4.74690235247483
1432,14.440911293029783,3.331836686035009,-0.14155500147869562,2.444578432549084,4.134868466316252
1433,14.455604076385498,2.8085936031452188,0.009057175158053384,2.084586156173927,3.4976820185034083
1434,14.459167003631592,2.269937214642482,0.21773093807580768,1.7006923850119093,2.8447102327393097
1435,14.46925401687622,1.7155934591536695,0.4973943936046906,1.296162061662066,2.2069658334401754
1436,14.480550289154053,1.1473479009229064,0.8581614014320705,0.8735341669941531,1.6780673817121359
1437,14.489531993865969,0.5686826557275741,1.3061287730711455,0.43441238146248096,1.4893241594554245
1438,14.499541282653809,-0.01607051844142767,1.8422616846092985,-0.02067361807614252,1.8424477671366495
1439,14.51014518737793,-0.6029545775194888,2.4613180244167125,-0.4922374487953563,2.581460506354272
1440,14.519710063934326,-1.1897391174946412,3.1508155171477257,-0.9815212590728657,3.5080623672916365
1441,14.53123426437378,-1.777041054313946,3.8901539990723744,-1.4898172920218244,4.528877190742011
1442,14.53986120223999,-2.3688480819407687,4.650162948117534,-2.0174491639275254,5.595136978519068
1443,14.554383277893066,-2.9722242169231516,5.393462512018716,-2.5625819921037296,6.67011102834653
1444,14.560258150100708,-3.596247080722677,6.075998781433231,-3.120134037316971,7.719196244973202
1445,14.57019019126892,-4.250480048971703,6.649901459242903,-3.6810515560489825,8.708496461653873
1446,14.581613063812256,-4.943352038254428,7.067476082224948,-4.232083033758042,9.607105409620454
1447,14.590424060821531,-5.680676312048567,7.285839246643531,-4.756026531302961,10.39102137697053
1448,14.600415229797363,-6.464329897202302,7.2715793711082775,-5.232369249180836,11.047222072990305
1449,14.610421180725098,-7.290999318983436,7.0048849852865125,-5.638363479748691,11.576624182216209
1450,14.62062931060791,-8.150931147887695,6.482737850680094,-5.950721290610304,11.994776050296602
1451,14.632274150848389,-9.026758235625298,5.720942401751914,-6.148015149010285,12.329218810656743
1452,14.640803098678589,-9.892623668986362,4.754882282179046,-6.213534346357831,12.612728398207022
1453,14.655944108963013,-10.71394660788621,3.638896317608518,-6.137990973942318,12.872651301233116
1454,14.660758018493652,-11.448248488020402,2.4440842678948482,-5.921310082454967,13.118607183867326
1455,14.671038150787354,-12.047453276294673,1.2542914202178277,-5.572895601579197,13.333099519520436
1456,14.682172298431396,-12.461941881113047,0.16005893095928125,-5.110251961519749,13.469977335535336
1457,14.6911301612854,-12.646331928316952,-0.7494641248629361,-4.55649132142105,13.463024209954117
1458,14.701231002807615,-12.56647342566226,-1.3961942094820285,-3.937750335824146,13.242790126546222
1459,14.711196184158323,-12.206612462627694,-1.723280780164718,-3.2815603982454027,12.75694803263678
1460,14.72133731842041,-11.5752794051285,-1.7041383358996756,-2.616599398255399,11.989068904031932
1461,14.732743263244627,-10.708343843018717,-1.348569775903612,-1.9732901361256916,10.971834042771908
1462,14.741628170013428,-9.667885057328649,-0.7045648902603443,-1.3841319447678013,9.79184530141448
1463,14.756339073181152,-8.536219761428336,0.14487456817132194,-0.8828621725798536,8.582976294484034
1464,14.761589050292969,-7.405766943971352,1.0897719521825915,-0.5020002698958158,7.50233238447605
1465,14.77177619934082,-6.3668209872034005,2.005751287695144,-0.2683948770814109,6.680679869686015
1466,14.78307819366455,-5.495634052150569,2.770800033107461,-0.19686478423435888,6.157766007400479
1467,14.792054176330566,-4.844458070292021,3.284591370808598,-0.28401720280608717,5.859861793549195
1468,14.802008152008057,-4.434671404912197,3.485832156429437,-0.5060931110098663,5.663344111861388
1469,14.812134265899658,-4.254375745211581,3.3613520653231426,-0.8229620440674054,5.484128665018022
1470,14.822216987609863,-4.261694128033683,2.943563069683138,-1.186100997619999,5.313514464332844
1471,14.833689212799072,-4.393384933399382,2.29892646390027,-1.5464244549534816,5.194066100303293
1472,14.842448234558104,-4.576310355772823,1.5132803984837264,-1.859982684165917,5.166446517886902
1473,14.85708713531494,-4.738634763582467,0.6781948197217642,-2.0923969206914617,5.224244683190941
1474,14.862495183944702,-4.818729956459299,-0.12049741564386861,-2.222942692206814,5.308121346888253
1475,14.87261724472046,-4.771327242261943,-0.8119737327515463,-2.2469438111602207,5.336067979883751
1476,14.883981227874756,-4.5712540740691505,-1.3469158233174399,-2.174286653537905,5.238135975378051
1477,14.89321231842041,-4.214969752718087,-1.7002766847179596,-2.0243644939424352,4.975435903039921
1478,14.902835130691528,-3.7196541861686088,-1.8702031115633093,-1.8204921908352882,4.543971694462346
1479,14.91295313835144,-3.119532785543527,-1.87406762684783,-1.586112823634291,3.9698070682814244
1480,14.923082113265991,-2.4597678800728136,-1.7428178014815112,-1.3425302590358972,3.3000393042243825
1481,14.9358172416687,-1.7891435559415594,-1.5146763587201808,-1.107163322129715,2.592506462345338
1482,14.950730085372925,-1.1531150127339107,-1.2291961897267785,-0.8923463782957434,1.9070604511364309
1483,14.957430124282835,-0.5884058345447167,-0.9225193236606029,-0.7051153827992819,1.3017108095555088
1484,14.963362216949465,-0.11972017532018432,-0.6242223651221261,-0.5478817752180808,0.8391429682202386
1485,14.973358154296877,0.2413102054848696,-0.35572955370197823,-0.4195763147900257,0.6006816249736106
1486,14.984691143035889,0.49514640999692827,-0.13011369133972162,-0.3169582856090542,0.602131293675329
1487,14.9937162399292,0.651823787055386,0.04700766313412375,-0.23586529660392352,0.6947779558294962
1488,15.00367832183838,0.7275766457539017,0.17588873528532684,-0.17219873612600672,0.7680866014780914
1489,15.013776302337646,0.7413349437361659,0.2608211592908681,-0.12254407699246636,0.7953755256129473
1490,15.023774147033691,0.7117449987963723,0.3084221264826478,-0.08441499351627837,0.7802762604014554
1491,15.03669500350952,0.6551458396892702,0.32629406977834424,-0.05613540940310969,0.7340538641159303
1492,15.05102825164795,0.58459719726227,0.32213540330188084,-0.036444112590045055,0.668470847868359
1493,15.057414054870604,0.5097526322395748,0.30322213366566164,-0.024024074113396295,0.5936064054210817
1494,15.064159154891968,0.43723354652926505,0.27610843249193434,-0.017185908670961713,0.5174015811345755
1495,15.074227094650269,0.3711868156100917,0.2464269752872114,-0.013833389649451145,0.4457547183162032
1496,15.085581302642822,0.31382294208645206,0.21874234675650334,-0.011708549839466535,0.3827141797525697
1497,15.09454107284546,0.2658643909221411,0.19646387970714305,-0.008811304571257304,0.3306955843041018
1498,15.104376316070557,0.22693796009247627,0.18185152787133366,-0.0038095613618730146,0.2908355698291436
1499,15.114552974700928,0.19599229852176536,0.17614905907298872,0.0037451538249526598,0.26354411067090194
1500,15.124619007110596,0.17180589129611717,0.1798441623065493,0.013471803747429961,0.24908367368417975
1501,15.137180089950562,0.15356853138846963,0.19300380994976116,0.024442987792710872,0.24785323104645926
1502,15.150212287902832,0.14139290339396277,0.21559714203889463,0.035619439795096325,0.2602745190694438
1503,15.156533241271973,0.13653620669764782,0.24770710645696362,0.04633189425247165,0.2866140100443217
1504,15.16489601135254,0.14117349475534996,0.2895492912789651,0.05663237795892442,0.3270718177019724
1505,15.17502498626709,0.15773265040523152,0.3412712731827049,0.06730050701266281,0.38193589664728406
1506,15.186408996582031,0.1879696292205006,0.4025964636881015,0.07940120180208507,0.45135467753317093
1507,15.195183277130129,0.2320692655562904,0.4724772740032967,0.0935319718350382,0.5346392692468191
1508,15.205212116241457,0.2880803163884455,0.5489799141009257,0.10909704348048527,0.6295008972772871
1509,15.215270042419434,0.3519150226374127,0.6295874704299061,0.1239216016492953,0.7318340860027943
1510,15.225351095199583,0.4179873635227992,0.7119835108215276,0.1343305599580982,0.836467964171459
1511,15.23793601989746,0.4803968037212537,0.7952122596409883,0.1356859034786633,0.9389112265340875
1512,15.250303268432615,0.5344193408234692,0.8809582089419496,0.1233459610267796,1.0377406341904605
1513,15.256322145462036,0.5779447132668294,0.9745969631628212,0.09391660727957422,1.1369607123037175
1514,15.265648126602173,0.6124350320286231,1.0856611788013495,0.04644881487136919,1.2473549438773197
1515,15.275794982910156,0.6430592356635537,1.227455620424697,-0.01692652679233767,1.3858062591840257
1516,15.28712797164917,0.6779160293764405,1.4157712244073042,-0.09131426127399132,1.5723601995272238
1517,15.295973300933838,0.7265919883572568,1.6669244095406077,-0.17029281703569168,1.8263549896450053
1518,15.305975198745728,0.798522912737205,1.9955117040641943,-0.24762696945872487,2.1635676368504884
1519,15.31629228591919,0.9016323615698822,2.412260747204718,-0.31886420544232996,2.5949214264495786
1520,15.326719284057615,1.041557596849547,2.9222891087379,-0.38232270074008223,3.125825732523223
1521,15.337600231170654,1.2215367328112183,3.5240084105313865,-0.439174245234354,3.755484161167534
1522,15.350301265716553,1.4427952525469598,4.208773116217281,-0.49260774189091067,4.476392707519776
1523,15.356712102890016,1.705113880224127,4.961173924931175,-0.5463929144875652,5.274391460154639
1524,15.366470098495483,2.0072686220750335,5.759727111412634,-0.6033545075663418,6.129243051218425
1525,15.37698221206665,2.347200193295871,6.577724809906513,-0.6641950876239576,7.015480563488979
1526,15.387747287750244,2.7219551647136937,7.38419308345774,-0.7268867238370315,7.903398744956958
1527,15.396867275238035,3.1275347237393047,8.14507944284681,-0.7866645728350038,8.760287308566683
1528,15.406790256500244,3.5588103661774872,8.824755524890133,-0.8365436943038627,9.552028404949958
1529,15.41701602935791,4.009628568964501,9.387764956792765,-0.8681975990974145,10.245048521901742
1530,15.427061080932615,4.473087902565868,9.800736015156987,-0.8729595409397705,10.80856142985708
1531,15.43842601776123,4.941833396781149,10.034506127969847,-0.8426681531079608,11.217090539443296
1532,15.450736045837402,5.408260096475947,10.066518306471991,-0.7701700459286673,11.453262853235994
1533,15.457162141799929,5.864692438322981,9.88334804695738,-0.6495488100638683,11.51073845025046
1534,15.46737003326416,6.303644535594023,9.482983075059275,-0.47635764565503735,11.396921472027394
1535,15.477280139923096,6.7181213684534695,8.876411258610386,-0.2480942900860004,11.13487235355797
1536,15.48869800567627,7.101828999914381,8.088120286831954,0.03494563786584351,10.76359076311866
1537,15.497762203216553,7.449254820352042,7.155110195468223,0.36838421582631453,10.335507061499277
1538,15.507760047912598,7.755700468018963,6.124079535814481,0.7423707468677608,9.909911918701209
1539,15.517836093902588,8.017290206510047,5.04688214134757,1.141036647739329,9.542008501124863
1540,15.527719020843506,8.230749218142275,3.9751281779192205,1.5439201695083349,9.269874120647577
1541,15.539157152175903,8.39266093106749,2.9552986004507296,1.9295428180207472,9.104596795480187
1542,15.550742149353027,8.49835359741499,2.0253567908187886,2.2796572721955224,9.02889369056287
1543,15.558032035827637,8.54134931753768,1.212918757004133,2.5820642870293087,9.005158302753262
1544,15.568212985992432,8.51440575165623,0.5345911999613122,2.8311716568594836,8.988683218665415
1545,15.578291177749634,8.412026057551568,-0.003674710977882849,3.0269132506219316,8.940044727137442
1546,15.58955430984497,8.233037818059662,-0.40520840262040725,3.1728514195198074,8.832558615344912
1547,15.598477125167848,7.981840435494312,-0.6805193357252461,3.274089604848087,8.65404795714481
1548,15.608612060546877,7.667935117460874,-0.8450426552035153,3.335634389371527,8.40462865534588
1549,15.618717193603516,7.304220836816843,-0.91715168902036,3.3615723730734572,8.09277320039756
1550,15.628743171691896,6.904790946721331,-0.9164943940548879,3.3549136343611274,7.731205952908064
1551,15.640133142471312,6.482841584407315,-0.8625142203982251,3.3177518428162855,7.333392330935306
1552,15.650450229644775,6.049081371025087,-0.7730534194352345,3.2515407962128204,6.910970595511137
1553,15.65880823135376,5.610824910766462,-0.6630579675850892,3.1574396699867724,6.472281461529754
1554,15.668951988220217,5.171805740811076,-0.5435011797933259,3.036681602388201,6.021993300179443
1555,15.679071187973022,4.732657240196225,-0.4206854391864075,2.8908819879758236,5.561674159848657
1556,15.690410137176514,4.291927259378193,-0.2960530480462041,2.7222094486283708,5.091042259621563
1557,15.699259281158447,3.8473739732311927,-0.16655037996605737,2.5333565114637966,4.609546694973338
1558,15.70926308631897,3.397185086167886,-0.02548887158965242,2.327257781340328,4.117966120922503
1559,15.719457149505615,2.9407685162666994,0.13622774210933117,2.1065729858280586,3.61998994592612
1560,15.730671167373655,2.4789226134661764,0.32867688176790055,1.8730845168488561,3.1243449590948758
1561,15.741051197052002,2.013440241112081,0.5614705593857229,1.6272438982715045,2.6489834839138267
1562,15.75038719177246,1.5463987170548452,0.8424671220699674,1.3680425072588729,2.2299417359081084
1563,15.760087966918944,1.079435703470611,1.1767867381584687,1.0932227597431043,1.9352375739048346
1564,15.769818305969238,0.6132154811088298,1.5661917849422282,0.7997200499055126,1.8624022368202129
1565,15.779938220977783,0.14714104248064167,2.0087835493578066,0.4842097534731694,2.0715503662502113
1566,15.79126501083374,-0.3207413097354084,2.4988854369010918,0.14368795626742378,2.5234796696830064
1567,15.80023431777954,-0.7937254941348032,3.0269644451269477,-0.2239509813458126,3.137302655809283
1568,15.810299158096312,-1.2763587091350193,3.579492907193677,-0.6193936963956864,3.850390834469842
1569,15.820199012756348,-1.7742673093281454,4.138761197198936,-1.0415139949172312,4.621917365552802
1570,15.831611156463625,-2.2938509373365847,4.682787349777816,-1.487148974598768,5.422348343532462
1571,15.841612100601196,-2.84182367726343,5.185573818389281,-1.951039914066929,6.226772389039263
1572,15.85095715522766,-3.42463487319595,5.617974074923014,-2.4258977236470463,7.012470070297117
1573,15.860361099243164,-4.047837946822663,5.94932328635314,-2.9025249026970354,7.7591294885481625
1574,15.87060809135437,-4.715456029523872,6.149790743141843,-3.369895190502215,8.450541127393919
1575,15.880667209625244,-5.429329551894945,6.193213454251505,-3.815107722554767,9.07681437552287
1576,15.892089128494264,-6.188370809892926,6.060042273293884,-4.223255226448611,9.636178202096994
1577,15.900920152664185,-6.987636582307217,5.73999752137491,-4.577435489122177,10.135460137993903
1578,15.910880088806152,-7.817180510801957,5.234105475109942,-4.859247999394682,10.588506144997936
1579,15.921163082122805,-8.66075371734808,4.555960667113946,-5.05001502531426,11.012178908315454
1580,15.932600021362305,-9.494554461384233,3.7322290203926562,-5.1326753307287065,11.42017749124432
1581,15.950690269470217,-10.286354811884253,2.8024355682761692,-5.094041784557703,11.81575228807432
1582,15.952946186065674,-10.995433813588456,1.8179501898646848,-4.92701300537377,12.185235524886489
1583,15.961609125137327,-11.573805190620694,0.8399269282591423,-4.632246093594554,12.494644761131681
1584,15.971633195877075,-11.969207895304807,-0.06409051098423199,-4.218729667123816,12.691088418212827
1585,15.98170018196106,-12.13014623929171,-0.825068085383381,-3.702956289972117,12.709566098713404
1586,15.993590116500854,-12.01284033531932,-1.378805846822508,-3.107073268115331,12.484524131040942
1587,16.00191617012024,-11.589327958110747,-1.6732691302628335,-2.4570092641570955,11.964499430694612
1588,16.011959075927734,-10.855371656038585,-1.6761515308585522,-1.7815108268546331,11.1275495312906
1589,16.022083282470703,-9.836509522371149,-1.3815861303227186,-1.1121928123655525,9.995132448901114
1590,16.033257007598877,-8.590589760345964,-0.8146897396806484,-0.4837410200790171,8.642682290643856
1591,16.050589084625244,-7.205391839531946,-0.03258327979551586,0.06690559849174481,7.205776126859988
1592,16.05265712738037,-5.7906415537459495,0.8790507413154114,0.5030487848967393,5.878547260145363
1593,16.062249183654785,-4.46510272045675,1.8139941180980301,0.7923146443177669,4.884207147564988
1594,16.0723819732666,-3.3409835421208642,2.657648004667707,0.9117886510348903,4.36538915671819
1595,16.082507133483887,-2.5085621538626333,3.3026513020401964,0.8531469997136447,4.234176366872326
1596,16.093937158584595,-2.0234914563735074,3.666196561587348,0.6260753455196532,4.234086116327704
1597,16.102604150772095,-1.8987798512202883,3.704578838142295,0.25850376794279245,4.170862439526443
1598,16.11272621154785,-2.1034458022017044,3.419109230600467,-0.2065454541724333,4.019633465655368
1599,16.122830152511597,-2.5688924436203533,2.8513026808610236,-0.7165851169867035,3.9041810402006023
1600,16.132858276367188,-3.2014133044415636,2.0714599808441085,-1.2163559626470528,4.0024386848471725
1601,16.15146827697754,-3.897006735013718,1.166344056927123,-1.654376134137042,4.39135290600445
1602,16.15354299545288,-4.554851100284792,0.22826634209051797,-1.9890829296469639,4.975462287035238
1603,16.163032054901123,-5.087652791758844,-0.6548915590787296,-2.1945325670116516,5.579342888846219
1604,16.173198223114014,-5.428805060701316,-1.4090446308997129,-2.2640961614048196,6.0484264554553
1605,16.18329906463623,-5.536959572509203,-1.98152287370156,-2.209661780712999,6.2822734254207315
1606,16.19497299194336,-5.398320206041552,-2.345127504691193,-2.0560912757959646,6.23450041259281
1607,16.20347809791565,-5.0263693637936635,-2.497846764773943,-1.833981276052248,5.904838250323661
1608,16.213382244110107,-4.458522361805361,-2.459086630755951,-1.5740481060990583,5.329461149928306
1609,16.22347402572632,-3.7497099638465405,-2.2638728649407778,-1.303886518893512,4.57007278013572
1610,16.233588218688965,-2.9638364634878807,-1.956169006896035,-1.046048986582017,3.7020456842359777
1611,16.252016067504883,-2.1647728070158645,-1.582245339738238,-0.8167313075817768,2.8029969050826575
1612,16.254098176956177,-1.4085795068435967,-1.1850304943579855,-0.6252043402624742,1.9440354849490573
1613,16.263858318328857,-0.7381143791700341,-0.8001205606845758,-0.47421490831520274,1.1873860061648702
1614,16.273848056793213,-0.1804659576638112,-0.4536484275916101,-0.36120248935709376,0.6073154831301588
1615,16.284077167510986,0.2529313883335403,-0.1618569290700269,-0.27998120945205024,0.4105623342910851
1616,16.29511308670044,0.5640512298368274,0.06798010644155679,-0.2225566396539271,0.6101692737317169
1617,16.304197311401367,0.7647016481411624,0.2357672855870864,-0.18078553772797787,0.8203890749360981
1618,16.3142352104187,0.8724964678213527,0.3464343641136636,-0.14764533932687965,0.9502978486898329
1619,16.324406147003174,0.9071341092554881,0.4078526203348719,-0.11799056790448101,1.0015776685825173
1620,16.33447027206421,0.8875269919818332,0.4291183030842413,-0.08878635440820268,0.9898129602441659
1621,16.351945161819458,0.8300444887490882,0.41934680868489344,-0.05889349700645676,0.9318229677608239
1622,16.354525089263916,0.7478382288496497,0.3869815795967593,-0.02854940880664055,0.84251517981541
1623,16.36473798751831,0.6509765327374629,0.33951101290146374,0.0012365629284363728,0.734193232837339
1624,16.37467098236084,0.5470047484858128,0.28342756681314174,0.029145948914330103,0.6167615964323346
1625,16.384896278381348,0.4416005891261429,0.224285371119638,0.053773264943303256,0.498203344064944
1626,16.39607310295105,0.3391334700233122,0.16678442227130474,0.07367996301099897,0.38504193401722864
1627,16.404942989349365,0.24306999004503035,0.11486823309879543,0.08744029042884038,0.28270750861271854
1628,16.41504716873169,0.15625884571561038,0.07185011844394386,0.09382535933299335,0.19591443142032447
1629,16.425251007080078,0.0811567754606882,0.04058075752423004,0.09217022513783345,0.1293389751249631
1630,16.43519616127014,0.020023339813229738,0.023629855454385056,0.08282224789584657,0.0884241423627748
1631,16.452442169189453,-0.024933548098340377,0.023405432490610913,0.06746160059152412,0.07563440781294664
1632,16.455339193344116,-0.05150453842048804,0.04213423301770723,0.04909351009724107,0.08269331172208481
1633,16.46545720100403,-0.05756471219855242,0.08169663177805239,0.03167722114314702,0.10484026933260278
1634,16.47549819946289,-0.04131722160444094,0.1433855058340122,0.019558651140340305,0.15049603622293697
1635,16.48580312728882,-0.001667415590060204,0.2276632051212705,0.016883506405692583,0.22829447656347432
1636,16.49721097946167,0.06133370393229104,0.33394663359460086,0.02701954232074295,0.34060568549929254
1637,16.505901098251343,0.14606363182062843,0.46044361063040484,0.05197480906202895,0.4858438883921772
1638,16.515942096710205,0.24903725058226384,0.6041133481069055,0.09190349842951868,0.6598626694715295
1639,16.534951210021973,0.3648800794188595,0.7608652675714035,0.1448496646840464,0.8561745459380916
1640,16.537036180496216,0.48665404996231615,0.9260842806457781,0.2067934086914117,1.0664088208009843
1641,16.547356128692627,0.6065374859362006,1.0954977636449743,0.27194193839645026,1.2813881105487772
1642,16.556200981140137,0.7167983367759001,1.2663395668385822,0.33321797435939376,1.4927993745248562
1643,16.56631326675415,0.810984571370883,1.4387133865656208,0.38301499516082593,1.6953739027727128
1644,16.576714992523193,0.8852143711915058,1.6169525831202536,0.4143100762271202,1.8893895782200547
1645,16.586519241333008,0.9393380490690822,1.8106178599850933,0.4220478113729023,2.0829828036761526
1646,16.597893238067627,0.977644214078636,2.0346912899457803,0.4044324915590364,2.293321280355482
1647,16.60664129257202,1.0088199029170544,2.30865583182217,0.3636411486224274,2.5455538162253672
1648,16.61671209335327,1.0450705798790059,2.6544472773110575,0.30567627070360115,2.869094081312774
1649,16.62831401824951,1.1005502601785722,3.093533124627664,0.23942583943481058,3.292185110369219
1650,16.636975288391113,1.1894350424306415,3.6435201669334685,0.17517042357948864,3.836753784686983
1651,16.651610136032104,1.324066855288346,4.314764076610757,0.122776791690621,4.5150211754389025
1652,16.6570463180542,1.5135808452226243,5.107474876352483,0.08984138806812055,5.327785474529418
1653,16.667113304138184,1.7632802675834864,6.009770600033949,0.0801350602373025,6.26361888966442
1654,16.677170276641846,2.074779836097603,6.9970161242518785,0.0927472136771837,7.298736058864086
1655,16.687328100204468,2.4467231245182446,8.032584436428852,0.12223585222656788,8.397845460591716
1656,16.698605060577393,2.875769925893282,9.069919630291894,0.15984644259203762,9.516251659757419
1657,16.707473278045654,3.3575274661156524,10.055553703286128,0.19556202756148117,10.603084243370715
1658,16.71748924255371,3.8871265604670104,10.932678832808024,0.2205288619258998,11.605251067398715
1659,16.728652000427246,4.459235202365611,11.645047426553914,0.22935107168396415,12.471748476889244
1660,16.73821496963501,5.0675038842557,12.141086926225245,0.22184481241727155,13.158069861795864
1661,16.75117015838623,5.703678526443162,12.377951137951461,0.2039519848598244,13.630378553754513
1662,16.758018016815186,6.35671236213728,12.32507514419793,0.18753877391175347,13.869046115605602
1663,16.767893314361572,7.012144710168817,11.96692726665555,0.18889434848964867,13.871308615868365
1664,16.77779531478882,7.651961921484631,11.304854603963348,0.22609700109579092,13.652962268991537
1665,16.788036108016968,8.255137803382732,10.357977667184427,0.3158730220275111,13.248953818048232
1666,16.799503087997437,8.798960860830903,9.162989572072942,0.4707129492179403,12.712342852869924
1667,16.80823016166687,9.2611001270907,7.77252042444845,0.6966657300720492,12.110548808865952
1668,16.818313121795654,9.622197539625914,6.251693575283163,0.9918270353730918,11.51755524922354
1669,16.829567193984985,9.868552166533755,4.672929403180461,1.3456835664403937,11.001611487945496
1670,16.838484287261963,9.994125434649552,3.1098077832040185,1.739984460474242,10.610419104572507
1671,16.851426124572754,10.000879080481075,1.6312254655706813,2.151521605180076,10.358934506960015
1672,16.85858416557312,9.89693230796169,0.2966872641343013,2.555843331121655,10.22592917901911
1673,16.86871314048767,9.693334239129607,-0.8472070509046578,2.9303562473074196,10.161962221673457
1674,16.878806114196777,9.401293029409382,-1.7692857764451937,3.2564958922884406,10.10541677913604
1675,16.88889217376709,9.031213030978842,-2.4551965166697483,3.5215212199899786,9.999595514281015
1676,16.90023708343506,8.593308357749091,-2.9072038840958783,3.7195938177291534,9.804700970654409
1677,16.909024238586426,8.098554035435981,-3.1420942210596237,3.851185902751508,9.502155882558686
1678,16.919157028198242,7.559021660177712,-3.1874562124363823,3.9209717131862596,9.092453175070075
1679,16.933319091796875,6.987465143757761,-3.077132226135799,3.9355159395453034,8.589627325022214
1680,16.93922710418701,6.39648758833847,-2.8467295109466435,3.9017409269622574,8.015142209430529
1681,16.950568199157715,5.797614365251565,-2.5298125038803247,3.8261207584677974,7.39266418088491
1682,16.959375143051147,5.200434748045274,-2.1550710212598676,3.7141263147935515,6.744152056233066
1683,16.969572067260742,4.611882986120886,-1.7445134502412811,3.5697323874029516,6.087345987654851
1684,16.9796199798584,4.035744914150688,-1.312577478941648,3.3951159297469244,5.434786916406132
1685,16.989776134490967,3.4725177683058654,-0.8660063784854019,3.19064520902098,4.794639042579314
1686,17.00108313560486,2.919714971052442,-0.4044053670998324,2.9550787663069404,4.173819561050173
1687,17.010289192199707,2.3725660736334295,0.07851363299286547,2.6858485984831137,3.584552532506086
1688,17.019984245300293,1.8249014636524867,0.5929806057430841,2.3794033721831647,3.056706030743722
1689,17.033310174942017,1.2699579254697089,1.1505981516570536,2.031674887884978,2.6578886525064203
1690,17.040085315704346,0.7009365497617077,1.7613919939601665,1.6387101710729954,2.5058301674209496
1691,17.05135726928711,0.11130938546617758,2.430814647643153,1.1974191448314553,2.712021799119295
1692,17.060405254364014,-0.5050092790932195,3.157054962852471,0.7063089820420937,3.274278972316655
1693,17.070414066314697,-1.1534844338474677,3.928981271219453,0.16605975661808245,4.098169836828349
1694,17.080509185791016,-1.838668991259776,4.725000417817833,-0.42015170427492937,5.08752003066367
1695,17.090530157089233,-2.563754774781023,5.513058760996446,-1.0465758917857255,6.1694389165206305
1696,17.101821184158325,-3.32999198677026,6.251953530391909,-1.7049707744102396,7.285787186003105
1697,17.110586166381836,-4.1360732640602444,6.894051982628977,-2.3847245803431045,8.385819346310598
1698,17.120720148086548,-4.977624842119356,7.389381898180976,-3.0729679558244123,9.424587309987219
1699,17.133677005767822,-5.846947857296318,7.690798561476256,-3.7546832230099825,10.364980842447316
1700,17.141327142715454,-6.733090394763946,7.759569895846101,-4.412757029424277,11.181138396125725
1701,17.152119159698486,-7.622205300831597,7.570454754676788,-5.0278309549534965,11.861234461565216
1702,17.160949230194092,-8.497995724106062,7.115433468419678,-5.578002748247771,12.408039306429178
1703,17.171151161193848,-9.341942348098582,6.4056725387787905,-6.038926672710026,12.836399918498604
1704,17.181379318237305,-10.133044481278263,5.471764923419346,-6.385106141735391,13.167702239872877
1705,17.191413164138794,-10.847059511098042,4.362503189571369,-6.592731593184187,13.422154967667888
1706,17.202527046203613,-11.455613997119581,3.142373379036111,-6.6435787937718125,13.610390945646323
1707,17.211381196975708,-11.925872576604633,1.8877893472559817,-6.528868359916428,13.72648197442234
1708,17.221582174301147,-12.221512499132267,0.6820468551343973,-6.251861309185285,13.744683536128901
1709,17.234276294708252,-12.305543416638045,-0.39088957175975325,-5.82826704501277,13.621596462384883
1710,17.241737127304077,-12.145105458847533,-1.2534490752400835,-5.284254920496113,13.304062208796822
1711,17.252888202667236,-11.717822566999304,-1.8418327978954891,-4.652850833429951,12.74161428725699
1712,17.26178503036499,-11.01866156056355,-2.1129578407081753,-3.970185608154852,11.901170832571509
1713,17.271949291229248,-10.065758086409062,-2.050075622761629,-3.272842183048315,10.781177666112889
1714,17.282095193862915,-8.903529501168096,-1.6662026447485616,-2.5965562784052,9.422906841228091
1715,17.292176246643066,-7.601685511959733,-1.0047254018360645,-1.9755858874441126,7.91820910020072
1716,17.303531169891357,-6.249575596804418,-0.13698444630899365,-1.4418596782358974,6.415209989581511
1717,17.312373161315918,-4.9466804496943695,0.8428726305197697,-1.0233562336786282,5.121263488991434
1718,17.32343816757202,-3.791288573607805,1.8255085374625597,-0.7413635306450826,4.272700592516206
1719,17.333343982696533,-2.8694693545951404,2.6968446263483927,-0.6065490658546753,3.9843101140491104
1720,17.34247922897339,-2.245359735689034,3.3518412667558497,-0.6149706229687237,4.081013242724842
1721,17.35376501083374,-1.9529165083786668,3.710472660609833,-0.7462868134677814,4.2589240732592115
1722,17.362718105316162,-1.9899136441868497,3.7316202875212867,-0.965668534612062,4.337886812758171
1723,17.372729301452637,-2.3162762779049633,3.4193173735041458,-1.2290807075957577,4.309002956847054
1724,17.382917165756226,-2.8585198375043874,2.8194436054091443,-1.4905597117374445,4.282775520587489
1725,17.393429279327393,-3.5197884862400413,2.0100221117667854,-1.7097494482340443,4.399129806381711
1726,17.4046630859375,-4.193150345792529,1.0887296562973587,-1.8578942189824836,4.713768451658386
1727,17.413201093673706,-4.775690523436015,0.15876318652941385,-1.9209574644044518,5.150000320882001
1728,17.424498081207275,-5.181465550377482,-0.6859056885951165,-1.8992648257594833,5.561048349166096
1729,17.433284282684326,-5.35161747290742,-1.3730032754119044,-1.80424147040854,5.812076638703397
1730,17.44370126724243,-5.260154501393226,-1.859064618625319,-1.6541350834373016,5.819064315593191
1731,17.45443105697632,-4.914569966716626,-2.130244782224466,-1.4702534147379664,5.5545104098827895
1732,17.463537216186523,-4.351543476194136,-2.1982487977163765,-1.2737174746712754,5.038907084592076
1733,17.47343397140503,-3.6289747768446308,-2.093638589645276,-1.0826035665215274,4.3272174612875105
1734,17.483664989471436,-2.816154826948617,-1.858368255950004,-0.9100805268926712,3.494639773924903
1735,17.493889093399048,-1.983877786389755,-1.538742882825742,-0.763837963177835,2.6242997475077523
1736,17.5051212310791,-1.1959005362452368,-1.1794966659566084,-0.6463867384318085,1.7997795123889235
1737,17.514024257659912,-0.5026638391531061,-0.819369751866135,-0.5558462202449578,1.1104065678957042
1738,17.525070190429688,0.06226217317931494,-0.48836925972083817,-0.4871840442366124,0.6926250103829864
1739,17.53405213356018,0.4830001665120884,-0.20668361970111956,-0.4338250043388588,0.6813306201053002
1740,17.543972969055176,0.7598508042193878,0.015018310773261902,-0.38924566912539815,0.8538799595166826
1741,17.555371284484863,0.9060755133052913,0.17429377165198112,-0.34814473899592496,0.9861824952505803
1742,17.564406156539917,0.9437207177203611,0.27503213933535614,-0.30705789550635804,1.0298232964517795
1743,17.574613094329834,0.8992778276785275,0.3253410726365676,-0.26449938721725774,0.9922234379094401
1744,17.584537029266357,0.7998998615768614,0.3355688261878344,-0.22072672702040616,0.8950790544308944
1745,17.594489097595215,0.6706209095023191,0.31671661840355125,-0.17720090195283106,0.7625234293368272
1746,17.60616397857666,0.532639304735114,0.279322786863342,-0.13585452812653256,0.6165892482214496
1747,17.614801168441772,0.4024324571216141,0.23274783844315874,-0.0983464928226921,0.475179409797422
1748,17.633718967437744,0.291400140454124,0.18472637937519598,-0.06551885434821902,0.35118456311298074
1749,17.635854244232178,0.20585020445609842,0.1410817466772583,-0.03722328676403753,0.25231713972229747
1750,17.64495015144348,0.1473083009977431,0.10558182477701307,-0.012516719373313813,0.18166982559015096
1751,17.656264305114746,0.11321919686624653,0.0799853704893946,0.009958462179783675,0.1389799158164581
1752,17.66518497467041,0.09805982360502466,0.06432696565772926,0.03162974062288187,0.1214665715662133
1753,17.675251007080078,0.09474620384700821,0.05741527368996873,0.053787175102045816,0.12315200770499435
1754,17.68537998199463,0.0960925661592402,0.057438507234708676,0.07749035675963309,0.1361532914591302
1755,17.695648193359375,0.09606686644122504,0.06254620562701,0.1035306934956498,0.15446512603776483
1756,17.707067012786865,0.09068229613362143,0.07130972558726861,0.13241300707839476,0.17561765355151623
1757,17.715654134750366,0.07847058783580627,0.08300521717751583,0.16432652383136973,0.2001267240237677
1758,17.725718021392822,0.06052532068314833,0.0976810669432936,0.19905159261880148,0.22984003525726204
1759,17.735790252685547,0.040119573525720965,0.11599665709683474,0.23576229217529782,0.2657981622383362
1760,17.745827198028564,0.021964171058931278,0.1388846762070415,0.2727738584339489,0.3068826419665745
1761,17.757066249847412,0.01126880208042037,0.1671657483876208,0.3073795306170066,0.35007649046551576
1762,17.76591205596924,0.012822423239676329,0.20127265008446765,0.3359373105937871,0.3918277310997124
1763,17.77613615989685,0.030278391953720906,0.24120079007164777,0.35429551044010404,0.42967419153179787
1764,17.786216259002686,0.06573394429374478,0.28670768765776083,0.3585221222641436,0.4637460099529254
1765,17.79623031616211,0.1195853859409452,0.3376780184396418,0.34575784327053416,0.4978710624760784
1766,17.807610034942627,0.19057100481533218,0.3945231715095655,0.31492164785859805,0.5395752820731008
1767,17.816411018371582,0.27590965027841297,0.45853041435670894,0.2670613433574538,0.598078621188535
1768,17.833759307861328,0.3714938963823084,0.5321616029145625,0.20532456798273432,0.6807068861728977
1769,17.836536169052124,0.4721679711396398,0.6193434831366375,0.13465815334838854,0.7903554651782603
1770,17.84664297103882,0.57216998114859,0.7257607626768843,0.061345794351529925,0.926212976832829
1771,17.858015060424805,0.6657985021594788,0.8590914024693223,-0.007566866215078244,1.0869144127937715
1772,17.866915225982666,0.7482680884055072,1.0290779701570985,-0.06496286295089417,1.2740199269836647
1773,17.877161026000977,0.8166254637940207,1.247344127595942,-0.10446927421576364,1.4945428565350842
1774,17.887044191360474,0.8705875305499793,1.5269035039283583,-0.12134979023007186,1.7618407221558627
1775,17.89708423614502,0.9132061038549658,1.8813271900914945,-0.1133369545947554,2.0943215248792
1776,17.908430099487305,0.9512801132860537,2.323549706601957,-0.08118119250353559,2.512052443521007
1777,17.91718101501465,0.9954024776199816,2.8643184786355005,-0.028664329710386276,3.0324854629993747
1778,17.934091091156006,1.0594999625452821,3.510316265746154,0.038053055729842494,3.6669208460567915
1779,17.937417030334473,1.159755195920077,4.2620218320748515,0.1115973887308835,4.418406521441621
1780,17.94748020172119,1.3129038847945733,5.111468682899917,0.1846448209684563,5.280617616991953
1781,17.958796977996826,1.5340718633635573,6.040239063246034,0.2508528150721526,6.23704990824642
1782,17.967616081237793,1.8345110119311248,7.018240889807878,0.30530819516259744,7.26046478775989
1783,17.977598190307617,2.2196907523302913,8.00391100292474,0.34467630050850906,8.313147426267175
1784,17.987802028656006,2.688122444355666,8.94627427471999,0.3673577071143311,9.348624356521213
1785,17.99805212020874,3.2311123792752268,9.788727259237735,0.3738351174275731,10.31499012400262
1786,18.009313106536865,3.8334622680266395,10.473841705006205,0.36720689700402387,11.159374262346368
1787,18.018145084381104,4.474962845139741,10.948384434823096,0.3537628316193879,11.832901687206446
1788,18.033928155899048,5.132361226597437,11.168123740872344,0.34334999961222423,12.29577199178445
1789,18.038166046142575,5.781447364633151,11.102251799489286,0.34924069148640713,12.522264080823268
1790,18.048354148864743,6.399049087372733,10.73707281705661,0.38731958108383086,12.505302009918541
1791,18.06011319160461,6.9648597176058695,10.078417626070673,0.4746054752192555,12.26005803773086
1792,18.068478107452396,7.462986364038323,9.152446520862432,0.6272628489787597,11.826111003570775
1793,18.078543186187744,7.883037032012292,8.004755213864975,0.8582861319906887,11.267432447826932
1794,18.088701248168945,8.220618716825319,6.697609173760202,1.1750571440641002,10.668519111089019
1795,18.098714113235477,8.477204286924362,5.305009139780342,1.5770311744040038,10.123889658646217
1796,18.11037015914917,8.659312917053859,3.905676804362579,2.0539287149959677,9.718880319351436
1797,18.120190143585205,8.77687535082837,2.574932638369127,2.5851212201760654,9.505086571889906
1798,18.13305902481079,8.84068650849784,1.377140235327596,3.1410639169223953,9.482643919260372
1799,18.13895606994629,8.859190934491842,0.36021462826155887,3.6868987752447056,9.602512232280517
1800,18.14911699295044,8.835533167779248,-0.44721081310962163,4.187144401010004,9.787687270504652
1801,18.160629272460938,8.76631107525709,-1.0361430177686792,4.610157743818692,9.958682475324602
1802,18.16923213005066,8.642954864903736,-1.4155126679652241,4.931719019496195,10.051178905839539
1803,18.17936110496521,8.455179242734856,-1.6087342397627853,5.137333188613827,10.023486128677618
1804,18.189407110214237,8.194823675552337,-1.6489828961582107,5.2228087817618,9.856571981985603
1805,18.199594974517822,7.858558285120819,-1.573920828308907,5.193243852889674,9.550075748914354
1806,18.211381196975708,7.448906531448891,-1.4208307290703543,5.061175321145344,9.117042508747188
1807,18.22105407714844,6.973846102235837,-1.2229456425511607,4.8445096256155,8.579009209400937
1808,18.234230041503903,6.445541089082177,-1.0072549484951903,4.564362006541611,7.961969793278247
1809,18.23979902267456,5.878711561140343,-0.7935801710265122,4.242802379640437,7.293174284193005
1810,18.2498722076416,5.28898815881015,-0.594474643272426,3.900700395160447,6.598655879672217
1811,18.26174306869507,4.691449278444841,-0.4154954752765078,3.555962740394307,5.90145777187878
1812,18.27000904083252,4.099443074635096,-0.2555581556055287,3.222328612497826,5.220550275592824
1813,18.280173301696777,3.5237458593003854,-0.10733460874195805,2.9087181606365244,4.570442750673847
1814,18.290287017822266,2.9720628667863056,0.04212804166988676,2.6190642551983134,3.9616196219327353
1815,18.30041027069092,2.448817441011773,0.21032631949466493,2.352563705589069,3.4022786495127924
1816,18.311933040618896,1.9551303382756817,0.4176263795710571,2.104274689331964,2.902570998394827
1817,18.3218092918396,1.4889117035446002,0.6850594107499324,1.8659524258764593,2.483534359102642
1818,18.336236000061035,1.045070253949301,1.0317993503281544,1.626989965374466,2.1917750985118123
1819,18.34067416191101,0.6159059125612204,1.472590590203814,1.3753363025355416,2.106991477096389
1820,18.350975036621094,0.1917219222437106,2.015368708816647,1.0983065575299753,2.3032033393210094
1821,18.361952304840088,-0.23840130867257597,2.6592516759923717,0.7832785041704916,2.782441351644379
1822,18.37089729309082,-0.6857930154080146,3.393016888578173,0.41835869709334383,3.4868179857274977
1823,18.38100218772888,-1.1614483425101012,4.194164551554649,-0.006852003107275985,4.35201395767335
1824,18.390981197357178,-1.6754044685220197,5.028718299875205,-0.5002903191768555,5.32402838798831
1825,18.401238203048703,-2.2362418519207705,5.851995098247967,-1.0662357458323783,6.354799990235018
1826,18.41242408752441,-2.8507051952932363,6.610607448370621,-1.7039635510699433,7.3979823418483415
1827,18.422839164733887,-3.523443188550966,7.245865091892732,-2.4064239650037482,8.408810209072401
1828,18.43742418289185,-4.256845786143,7.698508295177865,-3.1591567234318005,9.347087098188942
1829,18.441434144973755,-5.050883303028675,7.914414063352186,-3.939536207831275,10.181813082148697
1830,18.45211410522461,-5.902750757975795,7.8506919855577495,-4.716414499793568,10.895888990658243
1831,18.46281409263611,-6.806072019053305,7.481468551037433,-5.4505864438261,11.48929417285167
1832,18.47161626815796,-7.749490957188515,6.8026286905087625,-6.096916470155819,11.979263651850093
1833,18.481746196746823,-8.714698175412535,5.8348595156468335,-6.608723647463208,12.396240482679108
1834,18.491886138916016,-9.674273193349435,4.624519014585546,-6.944055771855236,12.774883502343917
1835,18.502182006835938,-10.590042276123373,3.2420570360133256,-7.0725079636597075,13.140787576506737
1836,18.51338815689087,-11.412818221526067,1.777903457735538,-6.980814760181325,13.496115558878072
1837,18.52220726013184,-12.084334745141181,0.33592584254316493,-6.675580378674965,13.809683768879898
1838,18.53625631332397,-12.54193037676392,-0.9752350390687133,-6.182155560432192,14.016780954641606
1839,18.54227924346924,-12.726050177037429,-2.0523767879852364,-5.53985761758575,14.030489157953753
1840,18.55239725112915,-12.589822831283547,-2.8085292638310193,-4.795186269220829,13.761732699970148
1841,18.56381702423096,-12.108957241971845,-3.1829655780863106,-3.995627965038145,13.142418278010314
1842,18.57258915901184,-11.289555819403272,-3.1489775739466674,-3.1861613938309086,12.145853398925077
1843,18.58268404006958,-10.171688199947914,-2.7182913649734806,-2.4086515363641676,10.800645860571416
1844,18.59269523620605,-8.82754189494899,-1.9414839784259217,-1.7023855017603413,9.19744379391187
1845,18.60290217399597,-7.354182381654257,-0.9042675920619818,-1.1036442486598521,7.491310233082556
1846,18.614272117614743,-5.8622348707566205,0.2800613912489389,-0.6433405932353274,5.904076488468587
1847,18.62302303314209,-4.462805155672673,1.4816913163143823,-0.3431058830473138,4.714844712323166
1848,18.63712811470032,-3.2549733679342427,2.5687104841790225,-0.21109325619239946,4.151829180048515
1849,18.642954111099243,-2.315213661568132,3.4240639512449302,-0.23919986304361165,4.140246951017154
1850,18.65306806564331,-1.6892422333115014,3.9625321957961344,-0.40317101965276225,4.326401229268041
1851,18.664576053619385,-1.387050977102124,4.143202614287172,-0.6660421002943502,4.419688947819804
1852,18.67336916923523,-1.3826533161689447,3.9726768138520097,-0.984015124772777,4.31997419272522
1853,18.683478116989136,-1.6196124392114617,3.498002058344937,-1.3127018756162323,4.072143055895788
1854,18.69388198852539,-2.021294392712265,2.7937510730043327,-1.6117556149830494,3.806367328878322
1855,18.703660011291504,-2.502876341113591,1.948923975884545,-1.8478700142344775,3.6711467189681626
1856,18.715219020843502,-2.9821555946242926,1.0557601312790517,-1.9977066505604815,3.741485441244013
1857,18.723807096481323,-3.3876785788977024,0.19973747328190322,-2.0509254446435143,3.965167889464656
1858,18.73771715164185,-3.664195951617064,-0.5491433216201551,-2.0111783160520647,4.215771409657421
1859,18.743959188461304,-3.7760942570158895,-1.1421768281649012,-1.8935280727419639,4.375946104207308
1860,18.754133224487305,-3.709184296174387,-1.5538474750945521,-1.7195014590223792,4.3736912769906935
1861,18.76538109779358,-3.4705895131236857,-1.780421843651496,-1.5122300329749139,4.183507282482822
1862,18.77412509918213,-3.0862707367582285,-1.8364746152793465,-1.293043057096475,3.8170232407782114
1863,18.78429698944092,-2.596216798804217,-1.750166470624361,-1.0794642810250221,3.31189786607314
1864,18.79408311843872,-2.0480446969713753,-1.557806471764797,-0.8841880327003806,2.7208521755941515
1865,18.804519176483154,-1.4901542288436849,-1.2983751179704905,-0.7148399861650896,2.1017454123956374
1866,18.816040992736816,-0.9655852386184187,-1.0087586119638712,-0.5744076405173562,1.5099314314675951
1867,18.824608087539676,-0.507481189836247,-0.7202284339244246,-0.46214418326492696,0.9949087401347164
1868,18.83845329284668,-0.13667159165763523,-0.45638856912876413,-0.3747300328345856,0.606128903374391
1869,18.84457302093506,0.13857463485854069,-0.23254051919690902,-0.30747311010694095,0.4096556309064736
1870,18.854673147201535,0.32097944052165256,-0.05620545533784428,-0.25533362129139553,0.4139832274490179
1871,18.86618208885193,0.42148566131713017,0.07156596632170495,-0.21366525619246587,0.47793795824907026
1872,18.874853134155277,0.45600288052372867,0.15448351730254875,-0.1786982580201447,0.5135531633468331
1873,18.8851420879364,0.44232695896952373,0.19926830000368637,-0.147814499796029,0.5071588709344796
1874,18.895101070404053,0.39769323356635267,0.2141468140748667,-0.11960423640313658,0.4672514733721601
1875,18.90528106689453,0.3371552505954203,0.20772681012178146,-0.09367417705584019,0.4069384991549954
1876,18.91791820526123,0.27274203115810375,0.1882403695388175,-0.0702626587891231,0.3387617060774068
1877,18.925457000732425,0.21321510248163156,0.1630531195892289,-0.04983385093601114,0.2730025868616351
1878,18.938939094543457,0.16423459661127052,0.13834673422087432,-0.03282475177269065,0.2172332523408577
1879,18.945565223693848,0.12879612958048284,0.11894445198014007,-0.019584299679149802,0.17640796593604022
1880,18.95565128326416,0.10784433025091106,0.10829259755395547,-0.010413555757148705,0.15318658033835006
1881,18.96695017814636,0.1009747162439997,0.10859779255529735,-0.005591222573774016,0.14839351615993582
1882,18.975828170776367,0.10712329002810415,0.12107463275270344,-0.005306472876939862,0.16174864641486503
1883,18.985802173614506,0.1251380541204369,0.1462216980281192,-0.009472182710115592,0.19269156652165575
1884,18.995946168899536,0.15413545608967857,0.1840349837206946,-0.017467478374144883,0.24069010544224867
1885,19.006068229675293,0.19357802578470598,0.234096949936012,-0.02793390698370497,0.3050477621544244
1886,19.01870107650757,0.2430767009314561,0.29553708892280456,-0.038761377812208786,0.38461785953669264
1887,19.026262283325195,0.3020022612204202,0.36691294088846355,-0.0473320134677273,0.47756757791183563
1888,19.03995513916016,0.3690452800001344,0.44608702894104174,-0.05098467866916398,0.5811948843020053
1889,19.04647922515869,0.441868445689415,0.5301797729458084,-0.047589411766732995,0.691811438940664
1890,19.056470155715942,0.5169611924386296,0.6156739182913705,-0.036111746053196676,0.8047405211338805
1891,19.067869186401367,0.5897651025976824,0.6987385215290013,-0.017050390775969544,0.9145212482693897
1892,19.077081203460693,0.6550901877632108,0.7758158579346073,0.007386096880636531,1.0154250114871013
1893,19.086794137954712,0.7077745650474826,0.8444564873216974,0.03347113045733096,1.1023483616724548
1894,19.09679317474365,0.7434842581143383,0.9043091078706261,0.05651513432095975,1.1720655975878278
1895,19.10687828063965,0.7595385555851271,0.9580981349695774,0.07165548926128484,1.224738895762602
1896,19.11958122253418,0.7556541111648994,1.0123842223619233,0.07471237202484536,1.2655105246268596
1897,19.1345009803772,0.7344962655333661,1.0779306100205477,0.06298217222762197,1.3059042530447018
1898,19.14128613471985,0.7019255146000344,1.1695545616109801,0.035871209092358324,1.3644940616482442
1899,19.147278308868408,0.6668618071136774,1.3053720017177408,-0.004757908816908441,1.4658524381232276
1900,19.157215118408203,0.6407571299292739,1.5053857384127358,-0.05465238890331947,1.6369919989372268
1901,19.16872501373291,0.6367266967985475,1.7894678910052402,-0.10766324010434371,1.9024215076119426
1902,19.17740631103516,0.6684112820347378,2.1748942009051686,-0.15658981804216018,2.2806706904322533
1903,19.18745803833008,0.7486550799585472,2.6736691545338647,-0.19431144065231384,2.7832980639202023
1904,19.197543144226078,0.8881246065682216,3.289952884191033,-0.2151209959717523,3.4145032347175674
1905,19.20764398574829,1.0940526770294403,4.017949343636389,-0.21602272868154176,4.16983620870777
1906,19.220744132995605,1.369321403970959,4.84062762090644,-0.19761242522140207,5.034458018720309
1907,19.23450803756714,1.7120661104862411,5.729623192612917,-0.16418493983339294,5.98219934392623
1908,19.24153709411621,2.1158803996589057,6.646550281012539,-0.122926788547317,6.976294969325132
1909,19.24802827835083,2.5705611319885495,7.545699513586416,-0.08233901725840934,7.971959946988671
1910,19.25806999206543,3.063223877221042,8.377744310580788,-0.050238854079070215,8.920339914930656
1911,19.269445180892944,3.5795876868536474,9.09379934738851,-0.031745437784592226,9.773005799203133
1912,19.27826499938965,4.105232434541736,9.649166747792584,-0.02764133616830875,10.486186929088417
1913,19.28831911087036,4.626646707989899,10.006365393077594,-0.03348243834124537,11.024260937315116
1914,19.2984471321106,5.131945134535491,10.137332974731128,-0.03974500560760944,11.362392370003965
1915,19.308578968048096,5.611245531646996,10.024904204711257,-0.03303238886485457,11.488510428631727
1916,19.319863319396973,6.056811880490442,9.663826154838386,0.0020251282028176023,11.40502127169138
1917,19.33376407623291,6.46312503487241,9.061580516936163,0.08070824645803935,11.13062174823841
1918,19.340100288391117,6.826984956836879,8.239044708240563,0.21625210698348532,10.702165494844428
1919,19.34873414039612,7.147604106160465,7.230674327785105,0.41792272588271495,10.175733639286248
1920,19.358825206756592,7.426532092579928,6.083666132374281,0.6890805949916027,9.62492621263724
1921,19.370025157928467,7.667245649751033,4.855532616006387,1.025491392020157,9.133153093747822
1922,19.37906813621521,7.874329562772933,3.609714539680117,1.414377722925373,8.776990911710309
1923,19.389077186584476,8.052254365690168,2.409464409157621,1.834851867204594,8.602964633389924
1924,19.39924716949463,8.203757140402304,1.3111675316768738,2.2603899036969315,8.609886992961084
1925,19.40934419631958,8.327906219858535,0.35880200447688654,2.6632491173729447,8.750751781782116
1926,19.420595169067383,8.41836625165898,-0.4192404375271671,3.019263788715358,8.953245596842335
1927,19.43459224700928,8.462980516953095,-1.0108362923929934,3.3110956453951723,9.143696386762926
1928,19.441002130508423,8.445640046404836,-1.4189139214585305,3.529414112059681,9.262770454046239
1929,19.44963026046753,8.350127095139412,-1.6589511057171262,3.6725739861665305,9.271706475078282
1930,19.45959711074829,8.164320845464292,-1.7555191889171455,3.7451459776550524,9.15227299004378
1931,19.47081232070923,7.883096438768327,-1.7382011916850988,3.7555556269472694,8.903300001280012
1932,19.47979021072388,7.509222423658886,-1.637490768809469,3.7135835046665675,8.535836213989189
1933,19.489838123321533,7.05250246406824,-1.4813652064912186,3.628540306733168,8.068366540897767
1934,19.50009298324585,6.527791723353022,-1.2929314474340128,3.5083273367542227,7.522771910210824
1935,19.510661125183105,5.952520938951115,-1.08919675245571,3.3591079997072257,6.921160426395895
1936,19.52140617370605,5.344254871944627,-0.880852899684464,3.185339817765867,6.283577939504777
1937,19.53398323059082,4.718689355260324,-0.6728840745743008,2.990107494705323,5.626681529921144
1938,19.54033231735229,4.088353283877588,-0.46571716120110235,2.775690535489267,4.9634648177291
1939,19.55040216445923,3.462129347670081,-0.256593640859406,2.544165624372766,4.304063038661029
1940,19.560561180114743,2.8455480333727032,-0.040909047289727225,2.2978169395977783,3.657701443295217
1941,19.57186508178711,2.2416605401708405,0.18661886276278114,2.0392319328424806,3.036171183122318
1942,19.58064913749695,1.6521944190540765,0.4310154361415657,1.7710865704607053,2.460135838650379
1943,19.5906662940979,1.0786785628579072,0.696385615571728,1.4957197321718232,1.9712122880990177
1944,19.600884199142456,0.5232918737383528,0.9855352534964595,1.2146486935098568,1.6493894536009768
1945,19.610884189605716,-0.010701137470142789,1.2998392634864058,0.9281710078046556,1.5972470206493254
1946,19.622241973876957,-0.5189653157752898,1.6392681549475685,0.6351480516419071,1.8330134015624278
1947,19.633885145187374,-0.996532262785568,2.0024635815217717,0.3330081706082321,2.261378205383913
1948,19.64112615585327,-1.4385915458960443,2.38675026669079,0.01796517582233354,2.7868342647194604
1949,19.65118908882141,-1.8415234736156427,2.787975671050758,-0.31456776722917124,3.356034851789816
1950,19.6613712310791,-2.203996721028748,3.200114479518949,-0.6693802824980823,3.9428928708410935
1951,19.67261815071106,-2.5278935556997633,3.6146974274589043,-1.0506903122474038,4.534339362385325
1952,19.6815881729126,-2.8188249979175843,4.020281723210304,-1.4612386964506265,5.122856432779334
1953,19.691673278808597,-3.086091072583637,4.402264333940504,-1.9013754563581307,5.702553638520741
1954,19.70172619819641,-3.342097491285728,4.7432699071880915,-2.3683067663129944,6.2671446443383125
1955,19.71303701400757,-3.6013807716128583,5.02414949629242,-2.85561616289776,6.809299912108522
1956,19.72314214706421,-3.879444629533891,5.225421410185138,-3.3530419776547253,7.321066182705584
1957,19.734154224395752,-4.1915525351946465,5.328883806660342,-3.8464232676863253,7.794939848028479
1958,19.741923093795776,-4.551505065728769,5.31915640107068,-4.317837680443389,8.22516537323491
1959,19.75218915939331,-4.970341499588018,5.1850131000605595,-4.746162004754553,8.608990024718477
1960,19.762226104736328,-5.454898745905247,4.920480133744341,-5.10833234590228,8.947742979704035
1961,19.77346014976501,-6.0062296540833,4.525744073954868,-5.381347364545791,9.247489039649148
1962,19.78233814239502,-6.617992703447445,4.007914713643078,-5.544744786353116,9.518687016627364
1963,19.79240322113037,-7.275046914334557,3.3816315675444386,-5.583138283139779,9.774107261179552
1964,19.802451133728027,-7.952572505628849,2.6694209404828655,-5.488398932024044,10.024556870596077
1965,19.814051151275635,-8.616047320699922,1.9016290593734333,-5.2610453134137245,10.272831269994963
1966,19.82403016090393,-9.222361437112578,1.115719547642664,-4.910429492609646,10.507573382452476
1967,19.834148168563843,-9.722277518345656,0.35477211702888767,-4.453538980616689,10.699651996706383
1968,19.842710971832275,-10.064309882107397,-0.33487685535006323,-3.9126362181880663,10.803295704886114
1969,19.85297417640686,-10.1998651677346,-0.9068139568123996,-3.3123570550974137,10.762493681888458
1970,19.86296319961548,-10.089195717662164,-1.3184097291904897,-2.677151515339998,10.521274384759858
1971,19.87442922592163,-9.707443116062903,-1.5350728553485662,-2.0298909598087893,10.035504861816294
1972,19.883225202560425,-9.049876485177723,-1.5344376667635435,-1.391960989003354,9.283981836747778
1973,19.893677234649655,-8.13541651050868,-1.309915589757809,-0.7844362042094728,8.277452555600807
1974,19.9033203125,-7.007694127956583,-0.8730609363150355,-0.22945556841360057,7.0655970906493435
1975,19.914878129959103,-5.733193908549928,-0.25435498321878197,0.2490910274938412,5.744236693460687
1976,19.92502498626709,-4.396406154192147,0.4977721837546753,0.6261718315104137,4.468585389372747
1977,19.935073137283325,-3.0923054656879354,1.3196730202852964,0.8777703439834309,3.474819527740856
1978,19.94408130645752,-1.9169400061005362,2.1368746444176523,0.9844689439940241,3.0348099338562378
1979,19.953829288482662,-0.9573876025940546,2.870187197432995,0.9359434996232042,3.167105272073537
1980,19.963866233825684,-0.28242490537689546,3.443834072605775,0.7352458289562256,3.5327529457655475
1981,19.97527503967285,0.06512909584368608,3.795383592510826,0.40107112359748903,3.817071712662673
1982,19.983973026275635,0.07360701587305987,3.8852417966515755,-0.03332364303784492,3.8860818669219275
1983,19.99410915374756,-0.23588980742333293,3.7018712110084686,-0.5239363953186136,3.7461985812926395
1984,20.004112243652344,-0.8122988606852026,3.2610927335285655,-1.0207683942901515,3.5123387323156896
1985,20.015756130218502,-1.5812129729891933,2.602242226643632,-1.4727763082137462,3.38245016609443
1986,20.025561094284058,-2.453459529525095,1.7844894939202207,-1.8337526459409157,3.5449280928425693
1987,20.034813165664676,-3.334035670554223,0.8826483121883106,-2.069492867659984,4.022146519562952
1988,20.04421615600586,-4.130728515031863,-0.02035023684062663,-2.164667641264146,4.66359498607811
1989,20.054428100585938,-4.762274496931121,-0.8445152355805263,-2.1260035432223043,5.283214498110216
1990,20.064680099487305,-5.165891403431626,-1.524111527738346,-1.9789735942550752,5.7380908347456945
1991,20.075873136520386,-5.303602304486579,-2.015533249723822,-1.759142525115732,5.940130815779074
1992,20.08501410484314,-5.166202462914482,-2.3001640130942835,-1.5029993609285648,5.851445073988931
1993,20.09477806091309,-4.773599626012374,-2.3828895340430445,-1.2421087864874918,5.477978656255132
1994,20.104873180389404,-4.170963900821584,-2.287796031840334,-1.0005813256846636,4.8612872302066314
1995,20.11857318878174,-3.421282134260754,-2.052311294415387,-0.7941931106101625,4.06791049414038
1996,20.126164197921756,-2.5958470050870988,-1.7207013403285483,-0.6303673391896846,3.17751439945521
1997,20.135141134262085,-1.7645750414607155,-1.3378490602262567,-0.5089896259149754,2.2721433986840336
1998,20.14526605606079,-0.9878720075336211,-0.9441822837642619,-0.42395127582446523,1.4307711111550987
1999,20.15524816513061,-0.31121291072085533,-0.5722798068115008,-0.36519533953158634,0.7468100756545445
2000,20.16538906097412,0.23714135315271223,-0.24529078266494572,-0.3210896391859815,0.4685105610635312
2001,20.177231311798096,0.6456041327693135,0.023036480238136602,-0.28084218924750104,0.7044201238834028
2002,20.185603141784668,0.9167107698481124,0.22718533080375408,-0.23644532810429558,0.9735903672850703
2003,20.195746183395386,1.0634887980334256,0.3681050908468867,-0.18370595130914938,1.140288410007036
2004,20.20571231842041,1.1055525352759537,0.45128358200061996,-0.12230457602611472,1.200358983369278
2005,20.215928077697757,1.0655478295872327,0.4849590355375618,-0.05510168894819581,1.1720126447323544
2006,20.234129190444943,0.9663689688399207,0.4786693590223741,0.013046236931422806,1.0785005996760935
2007,20.236207008361816,0.8292730301419887,0.4422074533378341,0.0766727440086597,0.9429315457562262
2008,20.24605703353882,0.672742740235651,0.38491881128778777,0.13095070611492057,0.7860619398336064
2009,20.25601625442505,0.5118564616223351,0.3152245643815886,0.17250745031227238,0.6253977803824862
2010,20.266175270080566,0.35798653134142944,0.2402829838905614,0.19965129663439374,0.47513251753275604
2011,20.27799415588379,0.21875321206934556,0.16576344676784233,0.21206657745395735,0.34684682692515245
2012,20.28639411926269,0.09826217525592092,0.09577218161071166,0.21028125704768993,0.2510895715119549
2013,20.29642915725708,-0.002303272280613077,0.033002490494063196,0.195319264735856,0.19810119792410338
2014,20.30651998519897,-0.08375158486154484,-0.02086956297448413,0.1687531161240027,0.1895454584713853
2015,20.31665706634521,-0.14780364634243084,-0.06464117094895086,0.13302130476724824,0.20909104805263903
2016,20.334758281707764,-0.19614573980649372,-0.0970752088170277,0.09167392629222806,0.2372780145165985
2017,20.33669114112854,-0.22982105043083254,-0.11660246997916733,0.049259061638980806,0.26237436303863
2018,20.34686708450317,-0.2490150006877719,-0.12131403567572463,0.010770075265418408,0.27720310305024515
2019,20.35693120956421,-0.25317208372521155,-0.10921110786266973,-0.019179855409147854,0.2763892850887549
2020,20.36695098876953,-0.2413175176477106,-0.0786059226799826,-0.03714790500498429,0.2565014663706308
2021,20.378559112548828,-0.2124461521936306,-0.028557089783079845,-0.04136610921908697,0.21831177235935667
2022,20.38719320297241,-0.16588807616548895,0.040752682863886676,-0.03187098699586684,0.17376822145197407
2023,20.397356033325195,-0.10162546928829229,0.12776450824038113,-0.010283481093541741,0.16357645172020724
2024,20.40743613243103,-0.020569442229427196,0.22945526541835912,0.020655660377501283,0.2312995397476399
2025,20.417522192001343,0.07520182890129098,0.34140993883314835,0.05759844958812688,0.35430727172767584
2026,20.43606424331665,0.1822840269104173,0.4580329535065807,0.09694315258199135,0.5024138013601681
2027,20.438193321228027,0.2959565946385816,0.5729046443329721,0.1349673594119669,0.6588066677827372
2028,20.44766616821289,0.41045816335280044,0.679314602464611,0.16786191823114754,0.811247099579929
2029,20.45774221420288,0.5195646060237875,0.7709825092683248,0.19185027258568899,0.9492986550720164
2030,20.467862129211422,0.6174036564523171,0.8429245977774592,0.20353089276371794,1.0644876593216936
2031,20.47896409034729,0.6993232742936115,0.8923601179539559,0.20047781670315787,1.1513257475943117
2032,20.48801898956299,0.7625528290170429,0.9194871300189262,0.18195357955350452,1.2083254960583554
2033,20.49816608428955,0.8064388774873715,0.9279438746548061,0.14940538110111098,1.2384447769418039
2034,20.509650230407715,0.8322165854018165,0.924863668510627,0.1064316868857126,1.2487133195101798
2035,20.519167184829712,0.8424832215747827,0.9205834934986856,0.05815601518080853,1.249253404733795
2036,20.529487133026123,0.8406370679916796,0.92816430343831,0.010210008796583526,1.2523034370863946
2037,20.538472175598145,0.8305027184763927,0.9628613884088962,-0.0323664783607497,1.271960851444282
2038,20.548413276672363,0.8162475192831624,1.0415946286441702,-0.0660208502283366,1.3249672206591285
2039,20.558545112609863,0.802574066547632,1.1823922916227296,-0.08914795506706627,1.4318254158507917
2040,20.56876516342163,0.7950753157921652,1.4037194334872307,-0.10197922511374849,1.6164692289327762
2041,20.580130100250244,0.8005647245071636,1.7235239833973797,-0.10594253224921522,1.903329351323774
2042,20.58881711959839,0.8271677961211191,2.1578064321680523,-0.10275234363106509,2.3131997764497916
2043,20.598966121673584,0.884016028706819,2.718629288170882,-0.09360618972148461,2.8602782494479917
2044,20.616822242736816,0.9805141848016788,3.4116831452506786,-0.0787900108377945,3.550661602573904
2045,20.619007110595703,1.1253103638757194,4.23370810163829,-0.0577922873520633,4.381089779198913
2046,20.63042116165161,1.3252165236674038,5.170214834821045,-0.029801132177134412,5.337434625387346
2047,20.6392502784729,1.584343367301276,6.194081086483778,0.005724069743307628,6.393498039134918
2048,20.64930009841919,1.903625196497231,7.265625606071022,0.04877375979173512,7.511024112328374
2049,20.65938806533813,2.2807744431311967,8.334525093186432,0.09901853656987931,8.641530261474479
2050,20.66946816444397,2.710593236940845,9.343448885815787,0.15645851478631112,9.729945120341167
2051,20.68087410926819,3.185527210550133,10.232774682369639,0.22216536330872924,10.719450487686133
2052,20.68960905075073,3.6963537951796708,10.94549296236956,0.2988049983207311,11.55664882201766
2053,20.699777126312256,4.232883989656343,11.431581007270303,0.39082559441708276,12.19635584266561
2054,20.71826219558716,4.784529392695261,11.651615296776408,0.5043534651084395,12.605801559258568
2055,20.72024297714233,5.340638053812527,11.579748038381638,0.6468206059274624,12.768373285210854
2056,20.731093168258667,5.89062651198349,11.206156330151204,0.8262176407683689,12.687003428287845
2057,20.74008798599243,6.424013405403441,10.53889419510218,1.0498415165358097,12.387025724450716
2058,20.750157117843628,6.930459053083687,9.6048873472743,1.3226130326398577,11.917819803739624
2059,20.76076316833496,7.399878994299839,8.44957923903477,1.645303003844911,11.351679189506218
2060,20.770345211029053,7.8226559834616936,7.1345769404657515,2.0130919753452203,10.77722942393888
2061,20.78175926208496,8.189939405918624,5.732789739317212,2.414862207569437,10.284529408261058
2062,20.79051303863525,8.49391868721666,4.321249251898277,2.8336736151634376,9.942311397223143
2063,20.80058526992798,8.727739753423814,2.9729363623704255,3.2487918067598383,9.775808919054654
2064,20.812361240386963,8.884721824310933,1.7496237264863002,3.638929363585404,9.759163488375162
2065,20.820806980133057,8.957161318783415,0.6971684818894563,3.9854607738052183,9.828564511788585
2066,20.83567523956299,8.935898317150231,-0.1565638195682834,4.2745628770756,9.90690056244227
2067,20.840898036956787,8.811746392608708,-0.8016319471753588,4.498270407640872,9.925921867848965
2068,20.850946187973022,8.57848845394483,-1.244168461968109,4.654669021002077,9.838920825542672
2069,20.86092519760132,8.235838875772284,-1.5030010219599443,4.747070821876938,9.624070627733886
2070,20.871127128601078,7.790906017258632,-1.6053332193417855,4.782411485729105,9.281528480466603
2071,20.882628202438354,7.257801441235522,-1.5823693682656736,4.769719057516035,8.827785365858052
2072,20.89133310317993,6.6559157879943225,-1.4655838189387058,4.719127990814582,8.289711689853679
2073,20.901348114013672,6.007591438010226,-1.283904781045917,4.641126383395939,7.699325975661778
2074,20.917248249053955,5.335751181582517,-1.0618075620585226,4.545644514578445,7.089468246880085
2075,20.92153596878052,4.661795990905561,-0.8182078430336988,4.441080896886958,6.490377914106333
2076,20.932804107666016,4.003906588650003,-0.5659700401321784,4.333603715274228,5.927200959812374
2077,20.94174313545227,3.3758169957396666,-0.3118218640997157,4.22684043016462,5.418445652189347
2078,20.95175313949585,2.7861321202857616,-0.056560249082524335,4.121814734374933,4.975448518271957
2079,20.961833000183105,2.238242526489826,0.20442700378844128,4.017007490715599,4.603028262756021
2080,20.97199821472168,1.7307999845766744,0.4802422678984761,3.908537656611977,4.301507623571151
2081,20.983386993408203,1.2586066511436653,0.7831275155807209,3.7904636315752027,4.070011541784247
2082,20.992165088653564,0.8137167778480093,1.1267248100722627,3.6551505592608233,3.910469204973801
2083,21.00224208831787,0.38656273402387015,1.524037198690752,3.4936598107775474,3.8311589635215313
2084,21.01757311820984,-0.03304759906191586,1.9852070631630323,3.296163671751006,3.8479649398620075
2085,21.022335052490234,-0.4551692553067846,2.5152785949457233,3.0523971658203664,3.981323136731917
2086,21.03357315063477,-0.8892158691744664,3.1121817904215,2.7521510919265224,4.248613419860087
2087,21.042522192001343,-1.3436155593676333,3.7652215331659997,2.3858345873513254,4.655577584295378
2088,21.05254602432251,-1.8254556263523996,4.454353977374564,1.9451732927193672,5.192037821341725
2089,21.06275701522827,-2.3399905506560383,5.150502336723298,1.4241010906963494,5.833634717247406
2090,21.072781085968018,-2.890041168539463,5.817094193693576,0.8198250425424493,6.54698678130147
2091,21.08412504196167,-3.475472137103968,6.412832599123411,0.13393974615285498,7.295290835584654
2092,21.092916011810303,-4.092990946579486,6.895439086392626,-0.6265913638131283,8.043150615283666
2093,21.103048086166385,-4.736430358336082,7.225849774354347,-1.448779188840155,8.76045881440697
2094,21.117268085479736,-5.397514314884964,7.372249652668493,-2.3134639102520955,9.425250181544133
2095,21.123101234436035,-6.066944475599941,7.313389845864584,-3.1958188677837964,10.025305209483188
2096,21.13448119163513,-6.735502321160984,7.0407278254190375,-4.066508367770565,10.558187824392164
2097,21.143757104873657,-7.39474495648487,6.55907461108532,-4.893380581825027,11.02945539198671
2098,21.153388023376465,-8.036870265231546,5.8857837024736686,-5.6435400864538865,11.449160587566215
2099,21.16346311569214,-8.65355252080192,5.0490128070088796,-6.2856380078714365,11.82733049853664
2100,21.17360830307007,-9.233959092057956,4.085856306290207,-6.7922097264644385,12.169401597355943
2101,21.18509411811829,-9.762538536496102,3.040928112885445,-7.141914961902733,12.472423653298447
2102,21.19435310363769,-10.217337844284005,1.9654313870022864,-7.3215228938403465,12.722484452585515
2103,21.20379114151001,-10.56955636758571,0.9162408638283644,-7.327337169142109,12.893598765217261
2104,21.217273235321045,-10.784865751548734,-0.045722676750929905,-7.16560619834968,12.9484104056029
2105,21.22411513328552,-10.82675193057631,-0.8584789003513174,-6.851607945988064,12.841342407790277
2106,21.235279083251957,-10.661754072397397,-1.4636447781962263,-6.407583039163471,12.524870312334533
2107,21.24420499801636,-10.266021899807129,-1.8125429628473166,-5.8602008133884445,11.959033038365831
2108,21.254188060760494,-9.632151278795401,-1.8729944201593545,-5.2384567170600125,11.123303247329865
2109,21.26435232162476,-8.77485136941504,-1.635653420978765,-4.57268979080416,10.029101185640174
2110,21.274453163146973,-7.733796123699493,-1.1186720410837714,-3.894778750063178,8.731112823139759
2111,21.285616159439087,-6.572316120192269,-0.3696927818442384,-3.2387418292019152,7.336311101153567
2112,21.294382095336918,-5.371603822627126,0.5355938737545954,-2.640342320342833,6.009359033495934
2113,21.30568599700928,-4.221434582740242,1.4991045627320165,-2.1342246007641386,4.962130497363615
2114,21.31737232208252,-3.209137852815788,2.4109269701340903,-1.748041322271919,4.37798847395299
2115,21.324676990509037,-2.4084466753195084,3.1644591299855795,-1.495397847712537,4.248603499521928
2116,21.336480140686035,-1.8696212347990284,3.673746366874127,-1.371730403065249,4.3443687951675845
2117,21.34486198425293,-1.6122871931240845,3.8885828760376864,-1.356333592499423,4.4226900853516575
2118,21.3548641204834,-1.6224768666739562,3.8022290864326966,-1.4194839488272026,4.370847960017029
2119,21.365265130996704,-1.855006417034744,3.448726093869596,-1.530051906278864,4.204262041510342
2120,21.37508106231689,-2.241139307638359,2.8915312525017565,-1.6596778526263742,4.017236482326453
2121,21.386669158935547,-2.6997367805766666,2.208786417719655,-1.7835611591553004,3.9177042425314204
2122,21.39541721343994,-3.1490938488098195,1.4799560893178392,-1.8807363247107411,3.9552789052110167
2123,21.4068922996521,-3.517187250570779,0.7758325870101206,-1.9355059402120733,4.088851379451285
2124,21.41771912574768,-3.749322377082573,0.15215450477337478,-1.9389178414015151,4.223739063474454
2125,21.42551898956299,-3.8129481165456935,-0.3534711846798405,-1.8887378627607054,4.2697594700514685
2126,21.436837196350098,-3.699466602459589,-0.7219434997907852,-1.7880390407090794,4.17185080877827
2127,21.445877075195312,-3.4228414194481624,-0.9510555437048265,-1.6435409506159584,3.914278590781857
2128,21.455873012542725,-3.0152156877255427,-1.052467059159314,-1.4643695620301427,3.5133446697302593
2129,21.46596097946167,-2.520420823701347,-1.0476969898117512,-1.2611584109165324,3.0067774524286786
2130,21.4759840965271,-1.986707571210122,-0.963662282285913,-1.0452280784363,2.4429804959834938
2131,21.487330198287964,-1.460021073531098,-0.8284404748643072,-0.8277723629519208,1.8716789896815385
2132,21.49626398086548,-0.9787706164365159,-0.6678792531937139,-0.6191106299626951,1.3369190658296841
2133,21.507533073425293,-0.5705416637432825,-0.5033882565399483,-0.428049891204798,0.8730087263307974
2134,21.51772403717041,-0.2507586508700684,-0.35089482233647734,-0.2613807740738308,0.5043084238679341
2135,21.52641630172729,-0.02303992470539188,-0.2207046024785333,-0.12356409129155244,0.2539870948342546
2136,21.537769317626957,0.11911528893545584,-0.11796151297178921,-0.016683063924001148,0.1684686772746288
2137,21.546646118164062,0.18968695526461005,-0.043484281071039854,0.05930238750717658,0.20344236742103328
2138,21.556690216064453,0.20693653919528796,0.005159254699845587,0.10605512366584383,0.23258770048942454
2139,21.56678414344788,0.1900983161275249,0.0324479656265377,0.12629062978170885,0.23052020180123478
2140,21.57714605331421,0.15646348171271868,0.043700436793341756,0.12336558792137015,0.20398435618640076
2141,21.588297128677368,0.11933321231845233,0.04404344018480809,0.10113674951674094,0.1625080991469828
2142,21.59701919555664,0.0871429497075884,0.037741988448413026,0.0639953031728515,0.11451528371341793
2143,21.608126163482662,0.06376636066067867,0.027974608660006048,0.016869594437659938,0.07164712623740997
2144,21.61735200881958,0.04968596297792838,0.01697259911769392,-0.034981112247341295,0.06309074616704977
2145,21.627418041229248,0.04350094036913042,0.006321060877984469,-0.08643460268627812,0.09697024370989578
2146,21.63847303390503,0.04324575254536486,-0.002788323946644944,-0.13309174493008707,0.13996921958838565
2147,21.647332191467285,0.04720187855995133,-0.009457825504341304,-0.17169752860891221,0.17831856082098463
2148,21.65737509727478,0.05415990532105707,-0.013108989986829262,-0.20021125750350008,0.20782129004024943
2149,21.667526245117188,0.0633034693823292,-0.013537881238503448,-0.21758794614359886,0.22701347486714746
2150,21.677495002746586,0.07398474216256463,-0.010913095474555918,-0.2234766197299519,0.2356578818788446
2151,21.688873291015625,0.08562594021935774,-0.005669250998023245,-0.21801423629840874,0.2342950047997311
2152,21.69778203964233,0.09784588698548882,0.001694507963883683,-0.2017896288892088,0.22426712484102818
2153,21.707767009735107,0.11075570100531074,0.01084357833516431,-0.17593505003697413,0.20817672859328257
2154,21.71774911880493,0.12525896351311414,0.02177730701525399,-0.14221823477003526,0.19076185505053456
2155,21.72785806655884,0.1431581046800778,0.03488234078226749,-0.10300248844955584,0.17977912354009082
2156,21.739202976226807,0.16692510301209798,0.050861016127219515,-0.06102854035727445,0.184865669379775
2157,21.74824523925781,0.19913274033239528,0.07056048065916243,-0.019106928849093603,0.2121266235840884
2158,21.758219242095947,0.24170533953363724,0.09475559430173544,0.020116039540367284,0.26039345010452075
2159,21.76840209960937,0.2952410236199518,0.12396218505826902,0.05422726302747476,0.32476835037920243
2160,21.77851104736328,0.35861380529237336,0.15835099890519255,0.08098321873635167,0.4002963676046141
2161,21.789677143096924,0.42891989302183836,0.19778400608147967,0.09817315284361428,0.4824196882702443
2162,21.798604011535645,0.5017180381248538,0.24194429871423487,0.10346897679771967,0.5665367266292118
2163,21.808706283569336,0.5715122913517346,0.29052857249159564,0.0944215401563123,0.6480343955729545
2164,21.81875705718994,0.6324661533104649,0.34350204731676387,0.06880989761970521,0.7230089166840054
2165,21.82882022857666,0.6792990838603371,0.4014121133472476,0.0253695477338718,0.7894444527815861
2166,21.8401951789856,0.7082172540001578,0.46569900124776764,-0.03531721239412073,0.8483481267250985
2167,21.849019050598145,0.7176819803677235,0.5388934505603958,-0.11006748094868812,0.9042059645699186
2168,21.858992099761963,0.7088499975844754,0.6246083589829065,-0.19273738817010727,0.964236289498308
2169,21.86926412582397,0.685587253998261,0.7272975084358858,-0.27444393112707477,1.0364897587310768
2170,21.87936925888061,0.6540453608323116,0.8518270689280497,-0.34444938705500816,1.127843105058231
2171,21.891013145446777,0.6218913910917121,1.0029597193617938,-0.3916304012085247,1.2434031816458502
2172,21.899551153182983,0.597373158899693,1.1848833511976007,-0.4062903985042484,1.387759033418913
2173,21.909640312194824,0.5884510618901592,1.400935633195578,-0.3819542561742195,1.5667751448138154
2174,21.91962099075317,0.602209564964383,1.65367504229514,-0.3167441958298298,1.7881902558833918
2175,21.929840087890625,0.644682602119481,1.9453803577047832,-0.21398665792842272,2.060560769157394
2176,21.94124412536621,0.7211155804754393,2.2788682107341223,-0.0818414572466978,2.3916408648505807
2177,21.949998140335083,0.8365442204096342,2.6582525727245745,0.0679907110458463,2.7876039370552808
2178,21.960312128067017,0.9963989261385835,3.0891462816274524,0.2220721323457567,3.253452258950088
2179,21.970152139663696,1.2067425643169176,3.5779792995152646,0.3669572684741346,3.7937871739437243
2180,21.98013210296631,1.4738505651451153,4.130428046897177,0.4904891748897341,4.4128506625148125
2181,21.99164319038391,1.803110403356178,4.7491766174286525,0.5826628453484074,5.1132554856541095
2182,22.000352144241333,2.1974873578317515,5.4313868656981,0.6361516146480483,5.893522109021695
2183,22.017340183258057,2.6559771789289184,6.166431709160222,0.6465508001103403,6.7451555012357725
2184,22.020434141159058,3.172528511293235,6.934497626878734,0.6124596688257629,7.65031380651104
2185,22.030579090118408,3.7358485009270916,7.706418882248131,0.5355530088038912,8.580924952229138
2186,22.04197120666504,4.330286398863289,8.444706053368911,0.42063929154270413,9.499546201665396
2187,22.05077815055847,4.937652892127803,9.105516740932098,0.27555149727350847,10.361794237977437
2188,22.06078314781189,5.539497515353743,9.641443538004346,0.11078152788869723,11.1200601961526
2189,22.07096004486084,6.11923460442058,10.005199604793868,-0.06100291799379557,11.728289416266525
