,time,New_AccelerationX,New_AccelerationY,New_AccelerationZ,new_NetAcceleration
998,10.006188869476318,4.062909009990228,5.42288477035818,0.4444123960318532,6.790611992581319
999,10.01763391494751,5.713460204537645,6.8458597049333525,0.4551327702342106,8.928413545922174
1000,10.026789903640749,7.274483163019534,8.17968566989349,0.484384329745349,10.957189015720155
1001,10.036146879196169,8.676154748846061,9.324363946251484,0.5530512128804187,12.748540695787383
1002,10.047297954559326,9.850477922229905,10.19327586454145,0.6771910160724056,14.191313393031358
1003,10.070198059082031,10.734647707337459,10.719513316651371,0.8664912771670218,15.195112183854318
1004,10.071085929870604,11.27564949754288,10.862587809267653,1.1233097624935942,15.69706693392121
1005,10.076592922210692,11.436247360675086,10.614306444640148,1.4426797735100587,15.66947924865955
1006,10.08676290512085,11.202116614203735,10.00154121839407,1.8131456331077869,15.126326073052661
1007,10.096307754516602,10.588955201151675,9.083417860659901,2.2180042985496042,14.126358177242176
1008,10.1072518825531,9.647332298882631,7.9417965396472265,2.636975276257117,12.770935414831914
1009,10.116365909576416,8.462690049499583,6.6665259272826525,3.0488390177421603,11.196209634029637
1010,10.127356052398682,7.1490385685885025,5.339454826440343,3.43519091214457,9.561331858148407
1011,10.137374877929688,5.837091269550284,4.021991052978896,3.78428208873433,8.03547369147693
1012,10.14698600769043,4.659327691636158,2.749640823300372,4.093133839070547,6.784069856638556
1013,10.170509815216064,3.734599020287532,1.5344448797026664,4.366612832917987,5.947189131327704
1014,10.17171597480774,3.154025896399175,0.37382894902160524,4.613739722956985,5.60126964798825
1015,10.177497863769531,2.9694916587917946,-0.7373406149696168,4.8431918957285385,5.728704882691061
1016,10.18756103515625,3.186336698883152,-1.795555805733803,5.0604649615128405,6.243802354083056
1017,10.196578979492188,3.761999836413974,-2.7819547545950485,5.267826421109617,7.045701542694902
1018,10.206658840179443,4.611535109468983,-3.661969272552817,5.466194020307855,8.034646979590047
1019,10.216694831848145,5.619418957643822,-4.391004673810094,5.657235710142259,9.102917518414502
1020,10.22749376296997,6.6556804506840095,-4.924270753640141,5.8444969810432505,10.13433123981038
1021,10.237267017364502,7.593493422419378,-5.228091737855594,6.033218202459553,11.017885797840234
1022,10.247102975845335,8.324922432421655,-5.289609982131157,6.229250118862934,11.665670332743538
1023,10.272480964660645,8.771847174733068,-5.12195693096031,6.4379171751384066,12.026076800579103
1024,10.273690938949583,8.890583313900594,-4.763161773850035,6.663468419094668,12.088506653741225
1025,10.276839971542358,8.670813634494788,-4.269056764178891,6.909061281788662,11.88036121232993
1026,10.28680181503296,8.130903097606279,-3.702301526073613,7.176636969361893,11.45961342989554
1027,10.296857833862305,7.31181101485624,-3.1206265587005584,7.465967061334052,10.90603294496974
1028,10.30756902694702,6.270978697410556,-2.567303615846836,7.772846683588672,10.311807176527918
1029,10.317337036132812,5.076582162434687,-2.0659194094692204,8.087712985728556,9.769893080166948
1030,10.327131748199465,3.8019992370755658,-1.6201615572435613,8.396517752044133,9.358505865290962
1031,10.33757495880127,2.5203161911031415,-1.2179451739144789,8.684268723481757,9.124248320351748
1032,10.349181890487673,1.2989082309674853,-0.8381696219885334,8.939591213209292,9.072264434361923
1033,10.373459815979004,0.19436711396204684,-0.45792283947157686,9.158199200030634,9.171700196219968
1034,10.374671936035156,-0.7517133431703421,-0.05813471974024757,9.344159989332583,9.374528174910111
1035,10.377126932144163,-1.51543721625445,0.3734966596694596,9.508810681432804,9.636053667685951
1036,10.38826608657837,-2.0912465707097496,0.8422531704778591,9.66779172085316,9.927179830167386
1037,10.397109985351562,-2.4903616758481797,1.3476866776911174,9.837125134069069,10.236561510638857
1038,10.408133029937744,-2.7374330893226104,1.8849917572987311,10.029414106244891,10.565788241212603
1039,10.417266845703123,-2.8662776532342815,2.445563875974259,10.250985549073963,10.921494173611213
1040,10.427977085113524,-2.9157143396710263,3.0168049750100323,10.500382916215456,11.30754366584352
1041,10.437748908996582,-2.9262571510992705,3.581881353688608,10.76824529237145,11.719554668285893
1042,10.44932508468628,-2.9379001293870535,4.1201237001933,11.03830263890681,12.142932167448027
1043,10.472461938858032,-2.9887274004909523,4.6083184768655405,11.28902172026346,12.554326029669848
1044,10.473635911941528,-3.113830269274959,5.022717455962545,11.495459935111167,12.925526244916679
1045,10.477295875549316,-3.3440707216003234,5.341404330470294,11.63111697245036,13.228616376607727
1046,10.487503051757812,-3.704498621565937,5.546651571588205,11.669845085871081,13.441500586691028
1047,10.498621940612791,-4.2125311977065465,5.626957612492267,11.587993261174233,13.553215813431699
1048,10.507401943206789,-4.876165490033229,5.578510663473667,11.36684262427667,13.56841487992438
1049,10.517775058746338,-5.692454743302342,5.405895268128056,10.99512901245125,13.510018751095863
1050,10.528121948242188,-6.646337302605084,5.121983903026661,10.471234421696401,13.418467459325734
1051,10.537954807281494,-7.709826963677058,4.7471087834422425,9.804586557657736,13.3456506464945
1052,10.55006194114685,-8.841641654916698,4.307683429377797,9.01586866534915,13.342288089848712
1053,10.571541786193848,-9.987532831274395,3.834378798754887,8.135718634622458,13.440356785809966
1054,10.57273292541504,-11.081790050860661,3.359817267981505,7.201880784215285,13.636771232063344
1055,10.57766890525818,-12.050500729241824,2.915701602218363,6.255464013695004,13.886925998408348
1056,10.587576866149902,-12.816975391242037,2.529512624615652,5.337477311483293,14.112475202755641
1057,10.5988130569458,-13.309203443119912,2.2213372657633803,4.48628758688211,14.21956440439849
1058,10.60866093635559,-13.46842536961471,2.0016701050506143,3.7355449777541105,14.119471003800335
1059,10.617817878723145,-13.257318821950161,1.8707567395971216,3.111811504150067,13.745530326725948
1060,10.628453969955444,-12.666322578209531,1.8192693795588921,2.631750684535508,13.06413335802319
1061,10.638335943222046,-11.717206993360238,1.8295512604493287,2.299401333323776,12.080043213149237
1062,10.649995803833008,-10.463536110348423,1.8770036209825565,2.1044361228879365,10.83685295282088
1063,10.671993970870972,-8.987679922240456,1.932059062965054,2.0224505837635487,9.412839580657641
1064,10.672874927520752,-7.3938080317310275,1.9635453079108702,2.0180596643569775,7.9117932351151365
1065,10.677852869033812,-5.7965653157494845,1.9436650650034215,2.0506640032207093,6.448505733793672
1066,10.68859577178955,-4.3061914361540765,1.8538174849210491,2.081280656607404,5.129488583063019
1067,10.699284076690674,-3.0122569769249328,1.6895438128259943,2.077993324631083,4.030670744144562
1068,10.70905303955078,-1.9696161731445387,1.4621980957131544,2.0187973845917044,3.176940984760973
1069,10.719401836395264,-1.1914413803163675,1.1954993466869965,1.8927732044334382,2.5360090011828493
1070,10.72849988937378,-0.6535500993930078,0.9178027919718561,1.7008363972765705,2.04017993021907
1071,10.738568782806396,-0.30945380468296374,0.6539001693062925,1.4556316234166606,1.6254877765588345
1072,10.751009941101074,-0.1090131365356909,0.4202179025363276,1.1790555091423067,1.2564389532278135
1073,10.77236294746399,-0.011655097199588595,0.22443215867723001,0.8969753983620726,0.9247002219130545
1074,10.773550987243652,0.010101072406044366,0.06788653892327984,0.6328186258220259,0.6365296748919184
1075,10.777999877929688,-0.02540654242520335,-0.051364033076342686,0.4027471523636577,0.40680342307914097
1076,10.788167953491213,-0.10274433063227689,-0.13630619641246638,0.21420810586863864,0.2738994145253662
1077,10.799674034118652,-0.2051846645003075,-0.1900154815302312,0.06753159297448924,0.28769279764523387
1078,10.808288097381592,-0.3143137891406608,-0.21572535656511857,-0.04132360046321235,0.38345563949999556
1079,10.818713903427124,-0.41264101945745296,-0.21718194856121156,-0.1185628405421318,0.48114213791472243
1080,10.829237937927246,-0.4869651133053411,-0.19870250481293958,-0.17127337589518954,0.5531295293924877
1081,10.839159965515137,-0.5304728274913378,-0.16495379030676913,-0.20664135489113525,0.592715634342868
1082,10.851797103881836,-0.5428228745321947,-0.12078347853266262,-0.23127290383405902,0.6022727603417598
1083,10.871953964233398,-0.5286442067770105,-0.07121376616354057,-0.25051492247797247,0.5893164041788033
1084,10.87279176712036,-0.495329508101275,-0.02140781783733617,-0.26791866063338154,0.5635512620658326
1085,10.87829875946045,-0.4508743152857013,0.023614434383362932,-0.2851069712112235,0.5339768484951699
1086,10.8885498046875,-0.402187708432788,0.05957204127539768,-0.3021885854563197,0.5065784461425756
1087,10.900239944458008,-0.35404824203675156,0.08366748079171207,-0.31857459749258915,0.48357024225949935
1088,10.908520936965942,-0.3087591687961508,0.09517077649484591,-0.3338297317884472,0.46457721730651885
1089,10.918694019317629,-0.2664647419823466,0.09558240497844002,-0.34820075630676284,0.4487574194971964
1090,10.929461002349854,-0.22594421296890624,0.08830851630533043,-0.36267687240060753,0.4363298009539044
1091,10.939111948013306,-0.1855792884680559,0.07796488137583697,-0.37871466946580284,0.4288857609024232
1092,10.950243949890137,-0.14420183435202447,0.06950534053389912,-0.3978859711518282,0.4288804115748998
1093,10.96510410308838,-0.10164816318685434,0.06737974825746107,-0.4215605325359551,0.43884582958767904
1094,10.972312927246094,-0.05895892634379807,0.07490557264253245,-0.4505659374119892,0.46053953550641413
1095,10.979431867599487,-0.01822313284281344,0.09394131083126503,-0.48480604616915784,0.4941598474719236
1096,10.989916801452637,0.01787127563824748,0.12479319624950135,-0.5229174046502304,0.5378990020526507
1097,11.00071382522583,0.04663312103475817,0.16621911516272814,-0.5620570314678638,0.5879724048332454
1098,11.008929967880247,0.06592960074946586,0.21548210563699435,-0.5978896762540229,0.6389454711287005
1099,11.018903970718384,0.07458922291740548,0.2685196712192175,-0.6248168959198733,0.6841509478426855
1100,11.03136110305786,0.07261738472359307,0.3202960316104859,-0.6364981431190863,0.7162351001057995
1101,11.039528846740724,0.061250030805900565,0.3653141368837092,-0.6267186584744763,0.7279988061534581
1102,11.05093789100647,0.042833790645311315,0.3982122837269228,-0.5904958628473698,0.7135076177392343
1103,11.073503971099854,0.020472791316169872,0.4144121348133823,-0.5250432075132677,0.6691987166908501
1104,11.074708938598633,-0.002522005332310456,0.4107963809599696,-0.4301985047890763,0.5948367680662163
1105,11.079031944274902,-0.023163977296176922,0.38627750267976113,-0.3082558531301765,0.4947408916894818
1106,11.09023094177246,-0.03908433851337703,0.3420538921546653,-0.1634436545410069,0.3811066502501677
1107,11.09909200668335,-0.04858072361844872,0.2815162292302837,-0.0013274133753800547,0.28568030393010796
1108,11.109100818634031,-0.0505610121265258,0.20997187607441511,0.1716954827831213,0.2759056786251369
1109,11.119557857513428,-0.04446947773362606,0.13432730182646108,0.34873586037266424,0.37634832107469407
1110,11.129199028015137,-0.030184914154578024,0.062693910367918,0.5225817750340351,0.5271938609633677
1111,11.139660835266112,-0.00787303848324142,0.0038215733950610472,0.6857921860320424,0.6858480236763681
1112,11.149312019348145,0.022206945490128905,-0.03363284900619686,0.8309019720428973,0.831878839798832
1113,11.172643899917604,0.05998611909917032,-0.04187323602965436,0.9508783358562755,0.9536882677169595
1114,11.17384386062622,0.10604518509775893,-0.01459676610177254,1.03978333246342,1.0452789222651448
1115,11.179260969161987,0.1622431694914379,0.05264286766197447,1.0934284165126378,1.106652528845273
1116,11.190193891525269,0.232295636802297,0.16234507200013004,1.1097794987037923,1.145394133485654
1117,11.199766874313354,0.3219387634724022,0.31506969627508064,1.0890017497776932,1.1784898353214117
1118,11.210412979125977,0.43843106029670553,0.5093500371089733,1.033268961993014,1.2326005041188026
1119,11.22089910507202,0.5894805588954345,0.7415524984245047,0.946654333597524,1.339231818825356
1120,11.229530811309814,0.7819735358105642,1.0059200541371005,0.8354129296168458,1.5235722920144827
1121,11.240060806274414,1.0208809668770682,1.2949336983409117,0.7087595669771721,1.7948234886507357
1122,11.24964475631714,1.3084613398222336,1.599897148387369,0.5799474188377827,2.146644118582313
1123,11.266727924346924,1.6436093588621281,1.9115838688480316,0.46719057257258606,2.5639562483162393
1124,11.274120807647703,2.021113598601481,2.2208704400307497,0.3938709372410755,3.0285805264277466
1125,11.279542922973633,2.4306847111037397,2.5193495206056076,0.38757363444712567,3.522153246792043
1126,11.289581775665283,2.8557980353177315,2.7999247309579856,0.4777608730059338,4.027830230946949
1127,11.299580097198486,3.2725804976008077,3.0573951598553415,0.6922351257929162,4.531736725160185
1128,11.310754776000977,3.64913513639137,3.2890368990032894,1.0528602854797335,5.0241880684735225
1129,11.31959581375122,3.945816516662573,3.495081427603005,1.5712195360706473,5.500344807307327
1130,11.33100175857544,4.11697808386671,3.6787896921484036,2.2449483268154093,5.960100261922399
1131,11.340238094329834,4.114542190525793,3.845822999476087,3.055433133204763,6.407455314896977
1132,11.34992289543152,3.8934480384704018,4.003002060187057,3.9674778422385573,6.850098068698342
1133,11.367085933685305,3.41873035375544,4.156967305058164,4.93134996255497,7.299747040836569
1134,11.37501096725464,2.6736504788518896,4.31322482278377,5.887225700431597,7.772499064185555
1135,11.37980890274048,1.667833076325052,4.4756302784784685,6.771519219709567,8.286519540978178
1136,11.389869928359984,0.4438696254096255,4.645992905293667,7.524084688817353,8.854045444027046
1137,11.401705980300903,-0.9193568474485724,4.823486380453701,8.094990482427386,9.46784604785919
1138,11.410988807678224,-2.308196041931113,5.003868223117794,8.449666707144209,10.087781402475757
1139,11.419893980026243,-3.581826875947789,5.1789396947628745,8.571764748735326,10.636073102367906
1140,11.431282043457031,-4.58656873974502,5.336987994548805,8.46372430912252,11.007028792512346
1141,11.440576076507568,-5.175934725580306,5.464576301800449,8.14541909170643,11.090525083205156
1142,11.450657844543455,-5.232653519991146,5.5488033732828175,7.65132102391399,10.80336036363773
1143,11.467448949813845,-4.687324901745729,5.578497901978309,7.026655744509082,10.122477193293372
1144,11.474908828735352,-3.5303197396666066,5.544047234411267,6.323148400339885,9.120406947849627
1145,11.48025393486023,-1.8164537662730909,5.437016990680984,5.594887293195708,8.01020735471462
1146,11.490135908126833,0.3379515934467953,5.250248048729712,4.8943651217113135,7.185688957735895
1147,11.50013780593872,2.7670437275734656,4.977936171611954,4.268470877796704,7.117318536748576
1148,11.51022481918335,5.276223527141318,4.615410555587986,3.7544982715602515,7.952157353582831
1149,11.522180080413818,7.668128190697117,4.159306459624987,3.37651576430428,9.354190444963011
1150,11.530309915542604,9.768322010320842,3.6090033218797637,3.1424723353307136,10.877506711235652
1151,11.540781021118164,11.445544088167663,2.9694686109085437,3.0426560130081324,12.209667436865567
1152,11.550407886505129,12.623073798518368,2.2546474288795597,3.050379926487746,13.180676949508834
1153,11.575629949569702,13.28030183222591,1.4898058080733523,3.1254020404550196,13.724214950782152
1154,11.576838970184326,13.446113692850831,0.7112747534471848,3.219674155199255,13.844500239503772
1155,11.580432891845703,13.187135146629181,-0.0370277225167114,3.284219014885898,13.58999628276018
1156,11.590413093566896,12.5939504550564,-0.7096194596597039,3.2756869303799268,13.032316475124631
1157,11.60087776184082,11.767646893154907,-1.2663818630947397,3.161435584643381,12.250547391076166
1158,11.611193895339966,10.80814629592365,-1.6785023899050784,2.922579409614103,11.321433965382013
1159,11.621295928955078,9.805101874321577,-1.9319663854976243,2.555050269084439,10.315076284645972
1160,11.630997896194458,8.831708604383216,-2.0279603696314745,2.0689726109228883,9.294748398869194
1161,11.640938758850098,7.941489562006462,-1.9804396356284946,1.4865289555486891,8.31860360574481
1162,11.65103006362915,7.16785108563882,-1.8117487683189788,0.8383379556553447,7.440654091764469
1163,11.668279886245728,6.525891288611709,-1.5473930363555495,0.1586285869129005,6.708714135236784
1164,11.67631196975708,6.015642312175576,-1.2109581746877605,-0.5198645225332734,6.158297755928092
1165,11.68056583404541,5.625760946685366,-0.8200551274668171,-1.169957188236222,5.804349788188204
1166,11.691085815429688,5.336799851214139,-0.38410345422542375,-1.7720679400075996,5.6364166719175355
1167,11.701778888702393,5.12359239291523,0.09549223279759513,-2.3142295795987367,5.622808579558193
1168,11.711814880371094,4.9567783018964064,0.6228674163376585,-2.7907567746956987,5.722406690195665
1169,11.721189975738524,4.803848647939538,1.2038186058853442,-3.2004024933828115,5.89650041870915
1170,11.731262922286987,4.630173594475221,1.8418564647092668,-3.544574639871565,6.115141219071522
1171,11.741273880004885,4.400322907617261,2.5353216386941604,-3.8259059886318343,6.358321644646566
1172,11.751024961471558,4.07971609902159,3.2760309543377373,-4.047297673367348,6.614913508069453
1173,11.768547058105469,3.6363856760505384,4.04927147237818,-4.211405951218545,6.88155798696489
1174,11.776086807250977,3.042526735079947,4.834648108942512,-4.320392882361669,7.162163494988021
1175,11.781153917312622,2.275597765197106,5.60730317212443,-4.3757117635460885,7.467733758692953
1176,11.790884971618652,1.318966433422124,6.339178558930692,-4.377823980185116,7.816022009691678
1177,11.801419973373411,0.16231407955167282,7.000174842661014,-4.325975802012139,8.230605100953357
1178,11.812056064605711,-1.1978750429715879,7.559268770854712,-4.218301436207435,8.739079812846613
1179,11.822386980056764,-2.757420640471679,7.985840471501905,-4.052415730578853,9.37011685509951
1180,11.831535816192629,-4.502949255531233,8.251519631306273,-3.82640021850525,10.149160894177367
1181,11.841395854949951,-6.409814671013095,8.332716788127792,-3.539897028081892,11.092824895278229
1182,11.85119104385376,-8.439726374326538,8.213728904575966,-3.1950140985601143,12.202558702229938
1183,11.86965274810791,-10.538608489686492,7.890041746295168,-2.7968429331876834,13.458727950668095
1184,11.878427982330322,-12.635356084877339,7.37129599911779,-2.3535368122538385,14.816455838860072
1185,11.881282806396484,-14.642213348194526,6.6833424019804495,-1.8760857471751446,16.20435667118289
1186,11.891315937042236,-16.457473286258644,5.868820135215362,-1.3780638954479985,17.52685188068192
1187,11.90130090713501,-17.971053390584085,4.985707173792821,-0.8755655974514374,18.6703682637883
1188,11.911399841308594,-19.073176077801556,4.103359231259705,-0.3872547961166771,19.51342022692847
1189,11.92133092880249,-19.66585896450048,3.295810065304044,0.06588987193868706,19.94022854115287
1190,11.93209195137024,-19.6762402904313,2.6326867506521308,0.46164085194843346,19.856953033384524
1191,11.941720962524414,-19.07000792556825,2.1690051064503515,0.7785670331588201,19.208746759176282
1192,11.95171880722046,-17.862540572332147,1.936048682669582,0.9986008755639031,17.994883825925513
1193,11.969185829162598,-16.125161325342855,1.9358356756698065,1.1092083800895969,16.27877854023421
1194,11.977027893066406,-13.984447010664955,2.140786816462329,1.104515483605176,14.190408057598571
1195,11.98166799545288,-11.613590512634516,2.4984492130873437,0.9857556075729215,11.920127817410043
1196,11.991829872131348,-9.215719156300985,2.9396818709742254,0.7621377585353444,9.703198598056865
1197,12.00213098526001,-6.999705682155117,3.3884514255740226,0.45249841310435635,7.789880455702207
1198,12.011499881744385,-5.150324105867131,3.7719546433432467,0.0861333128056429,6.384426299558139
1199,12.022610902786257,-3.7976166708909216,4.030040800480596,-0.29979917023136526,5.545538817377293
1200,12.032264947891235,-2.993865448178517,4.122587675111875,-0.6671942663470319,5.138492741050418
1201,12.042078018188477,-2.7067766513109968,4.033629108335665,-0.9859166258898827,4.956695998031474
1202,12.051794052124023,-2.8320564786997084,3.7719297917501025,-1.2402476711154966,4.8771110852782895
1203,12.069406032562256,-3.220484092014571,3.3681112112913905,-1.4291247599189072,4.874226964140975
1204,12.07795786857605,-3.709491098942232,2.8681829267173025,-1.5603893281560015,4.9418227780513755
1205,12.081793785095217,-4.150076207278802,2.3240587583996133,-1.6431293172178676,5.032321093870742
1206,12.091851949691772,-4.424950740360675,1.7834907211913225,-1.6820418377221766,5.058684903316457
1207,12.10188889503479,-4.458596544565213,1.2825989042754162,-1.6752002093664815,4.932589465779497
1208,12.111960887908936,-4.221334426626882,0.8427138819957741,-1.615176976366493,4.597676336294031
1209,12.123027801513672,-3.7284951565921842,0.4711639838013874,-1.4928128501570437,4.043780636725608
1210,12.13264298439026,-3.0347373768546055,0.16464405406523663,-1.3021754590562256,3.306417931415462
1211,12.143009901046751,-2.223323342741365,-0.08610668586635863,-1.0452365906502388,2.45827186823664
1212,12.152038097381592,-1.3907380481903309,-0.2913640201293321,-0.7350931072413991,1.599814735281555
1213,12.16916275024414,-0.628579274796214,-0.45849583633489205,-0.39618387936689753,0.8730933529182151
1214,12.178075790405272,-0.006672312188484509,-0.5905017730280786,-0.060135436186111155,0.5935934083061729
1215,12.182036876678469,0.4377597309707264,-0.6874445309205722,0.2420355368129869,0.8501733742199405
1216,12.19202184677124,0.7017436398809268,-0.7493157291016663,0.48809358787055895,1.1367293206884606
1217,12.20215892791748,0.8096030068716277,-0.7781132047028582,0.6692386977836584,1.3072098617588912
1218,12.212238788604736,0.8012165531120616,-0.7780818396182607,0.7891444516305609,1.3675190235107548
1219,12.223651885986328,0.7200030981141378,-0.7546509965792803,0.8584044618365851,1.3508370767909115
1220,12.23211908340454,0.6036383154207206,-0.7131698847114206,0.8879776966438123,1.2889898719695654
1221,12.242138862609863,0.47866887554089166,-0.6582267535548404,0.8853136791066949,1.202566697493473
1222,12.252723932266235,0.3591850939244898,-0.5936912935922404,0.8543968200119143,1.100671254204108
1223,12.269858837127686,0.24917780468028278,-0.5230348462533212,0.798186355900242,0.9862841819099748
1224,12.279898881912231,0.14743363209707402,-0.449378635500844,0.7209882737282368,0.8622655767056683
1225,12.282315969467165,0.05295721500477312,-0.37514652327515036,0.6293185880070079,0.734561955016477
1226,12.292407035827637,-0.03128581701719312,-0.30168401170357817,0.5314035139591708,0.6118674202081302
1227,12.30289387702942,-0.09764102803994555,-0.22929984056819874,0.43623571463889405,0.5024079875636984
1228,12.3137309551239,-0.135904845836681,-0.15784232991830843,0.35278471459692184,0.409684492126763
1229,12.325149059295654,-0.13696666834135046,-0.08746964249227708,0.28929210864701105,0.33181430155990915
1230,12.332587957382202,-0.09620728801392724,-0.019126473362573365,0.25237137904506474,0.2707636925649222
1231,12.342857837677002,-0.015317513990057754,0.04551183815717917,0.24596889828783128,0.2506125546979049
1232,12.352920055389404,0.0979822519474188,0.10448820995264872,0.27064220833581876,0.3062115488492963
1233,12.3711678981781,0.23198588034161674,0.1560659926386761,0.3236106628338391,0.4276656449095799
1234,12.380361080169678,0.3738622840577851,0.1990589732258624,0.399602232015082,0.5823052688187477
1235,12.382577896118164,0.5122295261768308,0.23303412051152486,0.49200765807223895,0.7474995146564642
1236,12.39254903793335,0.6386524937126313,0.25853130382377837,0.5936622126403996,0.9094780181506755
1237,12.403889894485474,0.7478193180376564,0.2772978287320231,0.6968838496150166,1.0591387624405242
1238,12.413193941116331,0.8366384321957694,0.292395446307581,0.7929837185433097,1.189235948465728
1239,12.42583394050598,0.9028156588725218,0.30808301779977404,0.8718448359297668,1.2923252987152436
1240,12.432950973510742,0.9436241021249148,0.3295319278840597,0.9220787201045155,1.3598701789787209
1241,12.44320583343506,0.9555213380264509,0.362541064995081,0.9319324817559662,1.3830962373542417
1242,12.452764987945557,0.9349498356762458,0.4133777986974451,0.890855304146641,1.355962968747004
1243,12.470820903778076,0.8801739739738171,0.48865685309328577,0.7914728304547631,1.2805939972856226
1244,12.472662925720217,0.7935569725500969,0.594989370658622,0.631561031922536,1.175846230134994
1245,12.483418941497805,0.683449386204323,0.7383293416165093,0.4155494513567317,1.0885378389003364
1246,12.492778778076172,0.5650012003412991,0.923389125762315,0.15516501673239172,1.0935949965049971
1247,12.502875804901125,0.45969289017407894,1.153574357740776,-0.13109699762610405,1.248694428152949
1248,12.512919902801514,0.3938510442125947,1.4314470630368625,-0.41982701431413216,1.5428590542405776
1249,12.522925853729248,0.3965293595021611,1.759319055655482,-0.685587822683243,1.9293702949800076
1250,12.533513069152832,0.4969922541478483,2.1395666237879736,-0.9041258847122123,2.375329504240847
1251,12.543354988098145,0.7219480760510195,2.574453523341704,-1.0552268260188071,2.8744605794322537
1252,12.553349018096924,1.092719495612456,3.065421956953922,-1.1248153822968674,3.4432625973803392
1253,12.571069955825806,1.6225842101349621,3.61195156079587,-1.106040136831355,4.111240491724723
1254,12.572957992553713,2.3145017396913845,4.21022032607604,-0.9991259529585373,4.907252405064731
1255,12.583579063415527,3.159388904816752,4.85186078050444,-0.8099943071484312,5.846228020090323
1256,12.593061923980711,4.135048534406127,5.5230469544786684,-0.5480448022695565,6.921201279298633
1257,12.603195905685425,5.20581240031198,6.20407467789657,-0.22380517039529776,8.101920396452627
1258,12.613107919692991,6.322960466853083,6.86963437311764,0.15279409111122252,9.337829058190392
1259,12.623326778411863,7.426045669293999,7.490066235093997,0.5730373899198078,10.562936066207229
1260,12.63381004333496,8.445380374257732,8.033814639714226,1.0290218205211021,11.701517561337626
1261,12.643632888793944,9.306105163067075,8.470931203808416,1.512826717188348,12.674735241493515
1262,12.65362310409546,9.934343542907653,8.776975546444545,2.0157322986309234,13.408566592710066
1263,12.671338081359863,10.265673351194232,8.936367346495173,2.527442467451455,13.843073218444006
1264,12.673369884490969,10.255381463236258,8.944319750496792,3.035161093684876,13.942234670964165
1265,12.683311939239502,9.888988965736491,8.806792328796183,3.522724489671476,13.70260127556562
1266,12.694305896759031,9.190739543838907,8.538262789221612,3.9702140161597295,13.15804788540465
1267,12.704638957977297,8.227360268498575,8.15757221284314,4.3545429876743755,12.377297202011576
1268,12.7134108543396,7.104729509552634,7.682725216553606,4.651658092977086,11.451609981611139
1269,12.723488807678224,5.956619322282935,7.126097799147358,4.840808518841018,10.473586334665457
1270,12.734232902526855,4.92728165502947,6.491637703119065,4.910196760829549,9.514698986652595
1271,12.744042873382568,4.1517266770902115,5.775241904331164,4.861753153135112,8.615503303744035
1272,12.753726959228516,3.737464088641794,4.9687126745258245,4.712568393235033,7.801605239743833
1273,12.771721839904783,3.749909353429566,4.066574175483137,4.492373298134427,7.126027191460617
1274,12.773521900177002,4.202682872186544,3.0737532258708513,4.238622322648667,6.713897631910781
1275,12.78361177444458,5.054199200917193,2.0113490221069887,3.9913131071259498,6.74692780237036
1276,12.793526887893677,6.21198870324562,0.9180719044534875,3.7886181026783374,7.333845294178222
1277,12.804229974746704,7.545099303948875,-0.15366721771668598,3.6630267135030907,8.388677000820085
1278,12.813684940338137,8.902922628218832,-1.1462238753441654,3.6373768924618886,9.685368921950037
1279,12.823709964752195,10.136789807104936,-2.0073348899841608,3.7210685436386797,10.983180416456406
1280,12.834451913833618,11.119642544548082,-2.6995568013473434,3.907754048844575,12.091509374287629
1281,12.844258785247805,11.759753145552375,-3.2055254371400626,4.175866416270256,12.884294613948205
1282,12.854094982147217,12.006789263059183,-3.527710522743606,4.4924537153780975,13.29623519364048
1283,12.871947765350342,11.851176266326796,-3.6835633499672347,4.819541509598268,13.313414220683969
1284,12.87373399734497,11.319153023319153,-3.698527790632518,5.121291584125904,12.962637095631235
1285,12.88434886932373,10.465815982014737,-3.5996549084308103,5.369999534948112,12.30153301969019
1286,12.893839836120604,9.367561221283378,-3.411627116736671,5.5495660994244025,11.409999417617236
1287,12.904019832611084,8.114452121603259,-3.1554663829095646,5.656136033846581,10.38234926020319
1288,12.914154052734377,6.802534785774178,-2.848929276802682,5.696509979699415,9.31885741304728
1289,12.923991918563845,5.526064782963607,-2.5071813520764823,5.685283416895091,8.315395231023778
1290,12.93498992919922,4.369863035484455,-2.1427409457733244,5.641493064281581,7.450737259085449
1291,12.944910049438477,3.4023456328039394,-1.7644077507158995,5.58519592148544,6.773736339511892
1292,12.954364776611328,2.6699675374963157,-1.3755330295941721,5.534199817484146,6.296680505363935
1293,12.971967935562134,2.1937776305031695,-0.972388544076066,5.5012176372396855,6.0017993356179
1294,12.973995923995972,1.9684880801339186,-0.5435249909594588,5.49187662981243,5.85927245095385
1295,12.984736919403076,1.9639927894837301,-0.07083846718084519,5.503980970619976,5.844321371256326
1296,12.994081020355225,2.1288044730431253,0.4674482037129047,5.528073048852749,5.942214060521127
1297,13.005383968353271,2.394638529911918,1.0923805626430483,5.5489353430202755,6.141520367433344
1298,13.014266967773438,2.681463888613897,1.8194406855879015,5.547552485790824,6.424636299193666
1299,13.024325847625732,2.9026485953566183,2.654302273849597,5.503159933916106,6.764278134978515
1300,13.034821033477783,2.9701155882461965,3.5898157666169186,5.395109565415556,7.128504125595558
1301,13.044921875,2.7995523913270346,4.604480130537786,5.20436351262539,7.491603996197922
1302,13.05467700958252,2.315703943289404,5.662498722196501,4.91458569544727,7.847262522035186
1303,13.072174072265623,1.4577096380428332,6.71551507011902,4.5130477076733015,8.221353882273519
1304,13.074241876602173,0.18439768520502745,7.7060882662582335,3.9917708519455952,8.680554902085134
1305,13.08456802368164,-1.5205804086364225,8.572830357813476,3.3491885876734515,9.328593105006743
1306,13.094500064849854,-3.643981190939243,9.25693733233135,2.5919804903637518,10.280459647168271
1307,13.104671001434326,-6.138966622284065,9.709602351247769,1.7360791577991121,11.617971417206126
1308,13.115043878555298,-8.92251933927428,9.899468838037768,0.8059642500770541,13.351419887315604
1309,13.125396966934204,-11.875174197737497,9.818950645430801,-0.16769484902173243,15.409726654499902
1310,13.13456678390503,-14.844172578032586,9.488131470948716,-1.1511209472619501,17.655004326582514
1311,13.14502477645874,-17.651201342581675,8.955150854010679,-2.110340326263919,19.905104168205227
1312,13.155276775360107,-20.105529606673947,8.292335198106175,-3.013584265397537,21.956248175115093
1313,13.172471046447754,-22.022375742570397,7.587715970399106,-3.8330751546939754,23.606163011720792
1314,13.174637794494627,-23.244800561083498,6.93221085264072,-4.54601181086671,24.678786919428536
1315,13.1850848197937,-23.665831113878294,6.403937892428097,-5.134665373575531,25.048887626784584
1316,13.194860935211182,-23.246528971288427,6.052670748252222,-5.585707086057046,24.662442215865976
1317,13.205169916152954,-22.025781976776205,5.88839583816066,-5.888964167090328,23.54757261792861
1318,13.215367794036863,-20.118829453654175,5.8774760005925355,-6.03600568104586,21.81158837188117
1319,13.224767923355104,-17.703648882208253,5.948401732387914,-6.019421468402266,19.622336806013987
1320,13.234807014465332,-14.99697370298207,6.007216842150328,-5.833814805516076,17.176416087810892
1321,13.245409965515137,-12.224434414897857,5.959940265205268,-5.479064582067071,14.66212240514367
1322,13.255866050720217,-9.590874089772052,5.735766715925237,-4.9653990136350785,12.228616969632538
1323,13.27114486694336,-7.2562551841312475,5.3032873638545714,-4.318162774503234,9.971189793999343
1324,13.274932861328123,-5.3206893854706925,4.674703372629074,-3.578943063776473,7.935453396781047
1325,13.28514003753662,-3.8202430198643675,3.898344490041326,-2.801102550016886,6.134942704668813
1326,13.294986963272097,-2.7331659759275917,3.0439968086605957,-2.041237833515669,4.571954146322977
1327,13.306184768676758,-1.9943147912590786,2.186478166498092,-1.3501783260883196,3.2528387250901725
1328,13.315085887908936,-1.5146659956548993,1.3915051106179541,-0.7661986023224862,2.194894040601975
1329,13.3259699344635,-1.202371480015998,0.7062574762873686,-0.31098375291477837,1.4287084003898851
1330,13.335712909698486,-0.9809048178454883,0.15572652484098595,0.012191980394855079,0.9932641424100084
1331,13.34694790840149,-0.7997707202483834,-0.25568058408518457,0.21807511436783206,0.8675036147194444
1332,13.35524082183838,-0.63567548770904,-0.5392489712254711,0.3356062291463522,0.8986124413136559
1333,13.373066902160645,-0.4858937962088889,-0.7157244891902151,0.39961279807498473,0.9529138019811646
1334,13.375046968460085,-0.35804913877304434,-0.8087279411661601,0.4398864793500272,0.9877956181892774
1335,13.385802984237673,-0.2605193194392519,-0.8389686572485269,0.4728834561029271,0.9976760429630132
1336,13.395217895507812,-0.1962585765243281,-0.8213268430187669,0.5008158862882625,0.9817900813724019
1337,13.406430959701538,-0.1611439998530668,-0.7657531645866852,0.5177064391189264,0.9382778132666075
1338,13.41530704498291,-0.1461565367988335,-0.68008253178065,0.5168819659057594,0.8666261881346595
1339,13.426414966583252,-0.14119432052493658,-0.5720140269662218,0.4947836430554164,0.7693807488037387
1340,13.436370849609377,-0.13815219028015924,-0.44953953877561736,0.4509235114162814,0.6515395903164974
1341,13.44757890701294,-0.13217676954829166,-0.3208224575074297,0.38718345306722673,0.5199122752718867
1342,13.455770015716553,-0.12139259790668123,-0.19411156571445953,0.30822189721806814,0.3839481744915028
1343,13.472681045532228,-0.10585546821653445,-0.0772775071401344,0.2217395253113631,0.2575764165183682
1344,13.475329875946043,-0.0862963051808992,0.02331528059996163,0.13706539631389514,0.163638557387967
1345,13.485987901687622,-0.06308461770858029,0.10403325920580136,0.0626641493245199,0.1368553383064939
1346,13.49649691581726,-0.03582573179430181,0.1644703754779542,0.0043526096171267155,0.16838329097311167
1347,13.506162881851196,-0.003706114775522934,0.2070005742365689,-0.035025995492650445,0.20997569712052344
1348,13.515553951263428,0.03382429129182565,0.23578628189147058,-0.055127813501168924,0.2444960720155192
1349,13.526488780975342,0.07661138287577308,0.25568740491856107,-0.05759393010709332,0.27306119058794726
1350,13.535928964614868,0.12378834517795072,0.27125410134233013,-0.0455495119823077,0.30162410370982784
1351,13.547906875610352,0.173947674960085,0.2858610002731398,-0.02289819220028177,0.3354081577827535
1352,13.555924892425535,0.2252064458217214,0.3010978208644036,0.0064749655416242785,0.376058195160948
1353,13.573123931884766,0.2751326519926415,0.3165587984476156,0.039253670135390384,0.421246127206174
1354,13.575706958770752,0.3206898459157889,0.33008062310547426,0.07286290170849184,0.4659444145695621
1355,13.585896968841553,0.3583554572774343,0.3383747203500809,0.10539651270187073,0.5040084424116624
1356,13.596951961517334,0.3844794268726634,0.3379691524872409,0.13543701012357262,0.5295193683261155
1357,13.606914043426514,0.39587385525722923,0.32636587792528293,0.16181278372465885,0.5379722785858818
1358,13.61623191833496,0.3905719805517801,0.30327552284136616,0.18337109934689566,0.5273968854880859
1359,13.62621784210205,0.3686544743114309,0.27175221004572425,0.19892667269483708,0.4993267529424112
1360,13.6363787651062,0.3330337310558079,0.2390628006611583,0.20752161937889024,0.4594863558263138
1361,13.648545980453491,0.2901338579191271,0.21717292835043647,0.2090270272271362,0.4183706902147353
1362,13.656087875366213,0.250463605508225,0.2227746380330741,0.20502453350858194,0.3929320760326886
1363,13.673717975616457,0.22906985564575433,0.27679710211527536,0.1998325306472013,0.4111236733755982
1364,13.675875902175903,0.24576075531105487,0.40334649426922514,0.2014538536158811,0.5134884598771652
1365,13.686133861541748,0.32487410999078314,0.6280384025396167,0.22213762801877135,0.7411616208281586
1366,13.69738483428955,0.4943237546443295,0.9757208009525175,0.27820337868930184,1.128620474619893
1367,13.706192016601562,0.783705813572679,1.4676311718379127,0.38880566670705136,1.708597642876009
1368,13.716135025024414,1.2213685586263845,2.118102527854001,0.5734814271600386,2.5113702279433268
1369,13.727268934249878,1.8305361673425344,2.931068414009194,0.8486487353232651,3.5584026449401764
1370,13.73660397529602,2.624814021403252,3.896818037082736,1.223630113993812,4.855111751233021
1371,13.748685836791992,3.6036505041381206,4.98961971682271,1.6970856745491438,6.384567460779218
1372,13.756263971328735,4.748547224868775,6.166843405689284,2.254812672180425,8.103260980847635
1373,13.774184942245483,6.020924625204178,7.370066323583586,2.869625304220402,9.940028186229302
1374,13.776124000549316,7.362441946417831,8.528426386891198,3.5034811079154173,11.798897741929755
1375,13.786571025848389,8.698195822759608,9.564277235911915,4.111353453158413,13.566032464698482
1376,13.797914028167725,9.94270041744847,10.400950258250319,4.645959281388552,15.120251172187842
1377,13.806786060333252,11.008081321444903,10.97188450925607,5.06256070108825,16.34593603670957
1378,13.816978931427002,11.813613911659596,11.229512172811663,5.323343041144681,17.14646897838695
1379,13.826612949371338,12.295557240625081,11.151769174123883,5.400943444419584,17.456026857800328
1380,13.837291955947876,12.416112545627275,10.744575976399771,5.280732181045156,17.24795338659738
1381,13.849119901657104,12.170278704178065,10.039708079104797,4.961707509363776,16.5387412900586
1382,13.856399059295654,11.589253675604983,9.088502704565062,4.45625342903999,15.387328448832198
1383,13.874467849731444,10.738927631115294,7.952891105344947,3.789323512371828,13.889996986364695
1384,13.876358032226562,9.712759060436552,6.69615672962703,2.99755324714173,12.17216205048518
1385,13.88677978515625,8.620255271420154,5.375749858066524,2.1281152127894067,10.379612798166168
1386,13.898236751556396,7.573905566311124,4.039379980101381,1.2362838925358661,8.672314224818315
1387,13.90658688545227,6.677134505200232,2.724507618147084,0.3805878971397303,7.221628217329267
1388,13.916661977767944,6.014281710897771,1.4607201422208609,-0.3846404521857748,6.201067336304843
1389,13.927603960037231,5.642719473617549,0.2738086865146473,-1.0181703119897347,5.740376733191896
1390,13.937582015991213,5.587611430323261,-0.8103698651786179,-1.5000587068650875,5.841941196101732
1391,13.94950795173645,5.840283627998779,-1.764184201751537,-1.8365563711760988,6.371357630653596
1392,13.956934928894045,6.360656908402274,-2.55952047963269,-2.0596529925526155,7.158999360371229
1393,13.974565982818604,7.083131985867826,-3.1714399675086686,-2.2207479391473384,8.072206117658444
1394,13.976685047149658,7.92473862920943,-3.5827145537235596,-2.380038136561824,9.016757035998888
1395,13.986906051635742,8.794445211598823,-3.7877193989677824,-2.5945429077308644,9.920722641279054
1396,13.99876308441162,9.602750236768848,-3.794529739880974,-2.9076031498391988,10.726855276993355
1397,14.007999897003174,10.270690881826173,-3.6246124387401086,-3.341828861119689,11.392661087652407
1398,14.018548965454102,10.737343527443631,-3.310166493059295,-3.896490884739304,11.892450943895652
1399,14.027458906173706,10.965002667270895,-2.889729978340646,-4.549353236326979,12.217955545419914
1400,14.03745698928833,10.941497293028636,-2.4029379040498218,-5.262040942742314,12.376572565422494
1401,14.048070907592772,10.679408807672564,-1.8853338422114057,-5.987478188490651,12.38766124963196
1402,14.057540893554688,10.21228986687377,-1.364029892052763,-6.677751522672489,12.277776967758491
1403,14.074666023254396,9.58839853448888,-0.8548146936668898,-7.290893477125212,12.075811455611763
1404,14.076964855194092,8.862886277421321,-0.36105836946927183,-7.795526376730026,11.80895201967391
1405,14.087187767028809,8.089659564867054,0.12547902872623162,-8.172962191875431,11.5002455561575
1406,14.097100973129272,7.3141800417031435,0.6220450975848515,-8.417006439203545,11.168266077752262
1407,14.10727596282959,6.568276564092803,1.1508498477674245,-8.532135426854738,10.828852540168176
1408,14.117934942245483,5.867648911448716,1.7342136536900852,-8.530811483032904,10.498168664282188
1409,14.12771487236023,5.212204417510335,2.3897739232830353,-8.430566698343648,10.195712292406977
1410,14.137602806091309,4.588798760001644,3.126637955139206,-8.25130337952279,9.945699896097505
1411,14.14781904220581,3.9755093167727136,3.943120315692721,-8.01312511701936,9.77563533959721
1412,14.157998085021973,3.3463750657595757,4.826269893661527,-7.734898694554078,9.711836334196299
1413,14.175440788269045,2.6756100136709993,5.752943564812837,-7.433601064627237,9.773109709463265
1414,14.177469968795776,1.9405738301743147,6.691873725125387,-7.124327220177004,9.965091022340735
1415,14.18750786781311,1.1231838550958502,7.606098482937427,-6.820660260774108,10.277922090451655
1416,14.197978019714355,0.20990836541836544,8.455292529143676,-6.534980357199644,10.688405004688523
1417,14.207552909851074,-0.8091003823357652,9.19787516239948,-6.278283259735375,11.16567918316009
1418,14.218137979507446,-1.9409235397183962,9.793108428340103,-6.059256832203999,11.678473797327705
1419,14.22783899307251,-3.1900477462653836,10.203543845054432,-5.882708328205317,12.202252615649998
1420,14.238089084625244,-4.557261456718183,10.398047078395631,-5.7478092047370515,12.724988239031148
1421,14.247914791107178,-6.037147311336249,10.3553038551333,-5.646833318664335,13.250139324538846
1422,14.257957935333252,-7.6144481003620825,10.06736376181746,-5.564975221559486,13.794947705679574
1423,14.27568006515503,-9.259911540588584,9.542566442640064,-5.481471510285462,14.382387352932652
1424,14.277546882629396,-10.926474228199565,8.807161246934585,-5.371791758426677,15.026978238651855
1425,14.287643909454346,-12.546880457117428,7.905038781720199,-5.210360567420909,15.718196607379307
1426,14.298054933547974,-14.034008789131997,6.895220434712538,-4.973260598082823,16.40825367042924
1427,14.307955980300903,-15.285121698935791,5.847092776030646,-4.640609306007902,17.010546552471343
1428,14.317590951919556,-16.190825167680185,4.833773130801402,-4.198716552739927,17.410841535683907
1429,14.32890796661377,-16.648744418469256,3.924362214012154,-3.6425796743891987,17.488559008178772
1430,14.337660789489746,-16.580819027461807,3.1760757869733736,-2.9792453737129145,17.143130403249806
1431,14.348408937454224,-15.95166252392627,2.627310337001999,-2.231481794136947,16.31985930949517
1432,14.35808801651001,-14.783814780236927,2.2927438921369236,-1.439613192444824,15.029648703650533
1433,14.37507677078247,-13.164812939463102,2.1616465376282146,-0.6590023090232424,13.357368735196058
1434,14.37772297859192,-11.242049214456078,2.200190635366424,0.04774829970185355,11.455426193395471
1435,14.389160871505736,-9.204444189438309,2.357368777843383,0.6225512664694383,9.521898469875541
1436,14.39830207824707,-7.253434585400268,2.572921535067646,1.0243442074287223,7.764117436359936
1437,14.40809202194214,-5.568512189840244,2.7855931727012213,1.237778376452437,6.3482243691769655
1438,14.417812824249268,-4.274975049888741,2.940923276971774,1.2742898866049155,5.343056813595491
1439,14.428961753845217,-3.4229585180995743,2.9982036005897714,1.1657836774861854,4.697331309362063
1440,14.438480854034424,-2.984585237523551,2.9355904400215227,0.95483092581831,4.293849364904214
1441,14.448553085327148,-2.869871454780562,2.752007947345004,0.6851507951259558,4.03474181593768
1442,14.458237886428831,-2.9552450377062383,2.4653799987313754,0.39436283982423104,3.8687328442871696
1443,14.475275039672852,-3.114557833045458,2.1078874277976016,0.11016437123446665,3.7624189150520566
1444,14.478095054626465,-3.242974825711332,1.7194021463331974,-0.14971217393949549,3.673641680409011
1445,14.48945379257202,-3.2689637076510523,1.3402426901894653,-0.3748901368680729,3.552874442654422
1446,14.498692989349363,-3.155581743441469,1.0042546879531042,-0.5591718671191362,3.358406883448518
1447,14.50880479812622,-2.895454705901675,0.7331446354345543,-0.6983474354353854,3.067384578264323
1448,14.518544912338257,-2.503790863209951,0.5331904972159079,-0.789119659894593,2.678800222235159
1449,14.528290748596191,-2.0121802498328,0.3955306224291501,-0.8285858041422342,2.2117568279362025
1450,14.538724899291992,-1.4637999007210085,0.30049594245190614,-0.8144302238564534,1.7018532693248754
1451,14.548851013183594,-0.9087762262935003,0.22495096358484712,-0.7466215795825399,1.1974643830161853
1452,14.55852508544922,-0.3980498616514994,0.15022467022083028,-0.6303779002731581,0.7605178768816224
1453,14.576336860656738,0.024489130947293696,0.06776567961535851,-0.47836760573437903,0.48376385880337053
1454,14.578243970870972,0.3298036507356992,-0.019565832751609877,-0.30996476793621447,0.4530247534203957
1455,14.590019941329956,0.5087224984604741,-0.10083665994218673,-0.14738305981375913,0.5391552454982047
1456,14.598286867141724,0.5721411439195708,-0.16312702164592133,-0.010531052656221035,0.5950351391529007
1457,14.6095929145813,0.5461220987587697,-0.19721174638748165,0.08727624237991166,0.5871617853282355
1458,14.618369102478027,0.46356122341799844,-0.20028635520653432,0.14142923470787905,0.5244100116976848
1459,14.629384994506836,0.35545268209998776,-0.17533307128961897,0.15544745583100092,0.42573725068903306
1460,14.63881778717041,0.2447806685240814,-0.1286869086574744,0.13809052507130348,0.3091065985341977
1461,14.648766040802002,0.14458197440158163,-0.06773473283867786,0.09961077760633873,0.18818673802881578
1462,14.658987998962402,0.059657362284803686,0.00028706350122617856,0.0490092819707519,0.07720746725235014
1463,14.676821947097778,-0.009972039965458989,0.06857079151910173,-0.00672428848895433,0.06961760615183137
1464,14.678564071655272,-0.06581184591379505,0.13081267612035202,-0.06184541528890053,0.15895914786071857
1465,14.690648078918455,-0.1088604779442598,0.18165394616928413,-0.11081325439950278,0.23901534923040982
1466,14.699113845825195,-0.13878810405387382,0.21749890074844416,-0.14799022116528865,0.2974374139448525
1467,14.708831787109377,-0.15386687966069323,0.23724403410913575,-0.16829036039470865,0.32906138299514265
1468,14.718669891357422,-0.15133626910713696,0.24242158045190498,-0.168251780737456,0.33163164917931487
1469,14.72975778579712,-0.12818666304590748,0.2366234970561379,-0.14678990114485857,0.30654489886481306
1470,14.739304065704346,-0.08235469205328418,0.22446605004319264,-0.10521115149500179,0.2612215330406139
1471,14.749151945114136,-0.014015581577722187,0.21050752164437603,-0.04657640926683284,0.21605373196501546
1472,14.759190082550049,0.07362141519710241,0.19844467232043483,0.025189092734739328,0.21315461792039175
1473,14.776748895645142,0.17451343899278368,0.19072942052368283,0.10605474982162096,0.2794284563213176
1474,14.77918791770935,0.2809902785683046,0.18857589597507785,0.19232986428631654,0.3892392347761075
1475,14.791094779968262,0.38542503556060487,0.19221288066868428,0.2808085570507727,0.5141514322111574
1476,14.7988920211792,0.4816147536932557,0.20120337065393742,0.3686976638721333,0.6390411056280259
1477,14.810119867324827,0.5653635597899493,0.2147224430847512,0.45338060869658997,0.7558410273627242
1478,14.818893909454346,0.6342377396844386,0.23181071657425759,0.5320486016203165,0.8596914756148457
1479,14.829758882522585,0.6868416559646471,0.2516887906847592,0.60127296081044,0.9469043674660964
1480,14.83952498435974,0.7220887994565897,0.27417044041677824,0.6566682091810178,1.0138021511360062
1481,14.849215984344482,0.7388528807315184,0.30011838515368466,0.6928451085973604,1.0564132567228637
1482,14.859647750854492,0.7361817725737777,0.3318436315052226,0.7038184300151452,1.0711882096389165
1483,14.878444910049438,0.7140292226642088,0.37336527532178304,0.6838964779957701,1.056860327692162
1484,14.880769968032835,0.6742818432311352,0.4304558521032025,0.628887855304282,1.0175697417230383
1485,14.891536951065063,0.6217779504986864,0.5103838933954251,0.5373082181929508,0.9673673861059733
1486,14.899652004241943,0.5650240754749917,0.6213393453364899,0.41124806225935534,0.9351148360718172
1487,14.91040587425232,0.5164045076035394,0.7717375337507635,0.256668194616413,0.9633955566643504
1488,14.919189929962158,0.491851360519024,0.969721352056757,0.08300106577846102,1.0904890822009914
1489,14.92934799194336,0.510121471639569,1.2229999464458268,-0.09793914218078746,1.3287380706540033
1490,14.9393789768219,0.5918757982162578,1.5388433719717276,-0.2734584647212686,1.6712676075072963
1491,14.950294017791748,0.7586672028263203,1.923920033040011,-0.43134896999217665,2.1126064830181464
1492,14.960002899169922,1.0318345581894008,2.3837770031538543,-0.5606741685735841,2.6573352967860053
1493,14.977344989776611,1.4312268212751535,2.9219530863354044,-0.6519662300911621,3.3183248813010544
1494,14.97937798500061,1.9736216866570184,3.5388292920243143,-0.6971553499083214,4.111510780970663
1495,14.991995811462402,2.670706631800834,4.230348175103135,-0.6895287047021071,5.050145486057955
1496,14.99944305419922,3.5266062870394124,4.986757002934771,-0.6238268942911445,6.139532335947571
1497,15.009631872177124,4.535111698454702,5.791603023899683,-0.4964879894884797,7.37267956903126
1498,15.019497871398926,5.676914868573619,6.6212879929210935,-0.30605185251193207,8.727112056497228
1499,15.030797958374023,6.9172828001595965,7.44549649853388,-0.05371176877407503,10.16302634067082
1500,15.040445804595947,8.204743766650626,8.228720719705075,0.2561107405569477,11.62304855322925
1501,15.05020809173584,9.471463240600468,8.932930439537179,0.6154644520236591,13.033980920937417
1502,15.06003999710083,10.63600545984419,9.5212161973392,1.0131744205029158,14.31099900163057
1503,15.07752799987793,11.609066061889017,9.962019833375647,1.4357228974085359,15.364685295443454
1504,15.079605102539062,12.302413843564489,10.233377148280614,1.868156497054531,16.110909438475723
1505,15.092150926589966,12.64059759768957,10.326371462786339,2.294443021912599,16.482812987926753
1506,15.100343942642212,12.574018901801113,10.24674842063891,2.6971716986073253,16.44313047173457
1507,15.109899997711182,12.090938015034087,10.01359580231407,3.056965003679263,15.993996311405045
1508,15.12086296081543,11.225196998534429,9.654484230638657,3.3523374007532465,15.180654777184214
1509,15.129913806915283,10.05653306818597,9.197701833267653,3.561041828183168,14.085900584175766
1510,15.139883041381836,8.702009170430681,8.66384154943529,3.6637062255072648,12.814439406497721
1511,15.150600910186768,7.300084803646649,8.059883572358839,3.6491041694348443,11.470349714799429
1512,15.160274028778076,5.991446114912001,7.378123885006925,3.518400414847399,10.134756044898275
1513,15.178348064422607,4.90113789902455,6.600345049989187,3.2855317318132444,8.85327206432307
1514,15.179894924163818,4.1250519288903815,5.7058417423716605,2.9735207513854256,7.6429385097587215
1515,15.193043947219849,3.722066369104072,4.68090685454652,2.60939939226517,6.5248472951717424
1516,15.19996976852417,3.711907607360269,3.5270643740486234,2.2204621825301167,5.5811193759234765
1517,15.210134029388428,4.077852061952949,2.265756107552534,1.8322334617295022,5.011946491770119
1518,15.221251010894775,4.772628366023845,0.9383818402364343,1.4668649058007648,5.0803774121743
1519,15.23080587387085,5.725769504586468,-0.39793855638358794,1.1411286546770611,5.851919866234851
1520,15.240555763244627,6.851356581297425,-1.6775114026090032,0.8643638018638172,7.1064939521499095
1521,15.25057077407837,8.055936934576499,-2.834497026671972,0.6371268373019875,8.563785605378994
1522,15.26058292388916,9.246597847986349,-3.811111242890482,0.45093241402077655,10.011367574416925
1523,15.2790789604187,10.338715613814143,-4.564172470184609,0.28913196578006145,11.305056752380825
1524,15.281331062316896,11.262395612368698,-5.068688832944113,0.12898653427891543,12.35110517082335
1525,15.293497085571287,11.966608671355763,-5.317737817655098,-0.054979380157793925,13.09507851534036
1526,15.300189971923828,12.420606791278056,-5.318950342643164,-0.2866032054522149,13.514616058490965
1527,15.310425758361816,12.613006946058189,-5.088958360704114,-0.5835551139152194,13.613448423866343
1528,15.32176685333252,12.54939799123607,-4.647614302810692,-0.9538356186651232,13.416315106524769
1529,15.330473899841309,12.249167343981053,-4.01352005783921,-1.3941648858809041,12.965112402310782
1530,15.340269088745115,11.741720829038684,-3.2016914270446777,-1.8904102542679964,12.31635039086392
1531,15.351017951965332,11.06190379576807,-2.2234005003444155,-2.4195986667419978,11.53965697409847
1532,15.360931873321531,10.244529921134745,-1.0876771647340633,-2.9528982967211532,10.716951211538088
1533,15.379430770874023,9.318382684704552,0.19626113123002187,-3.459142234014338,9.941651738286502
1534,15.381672859191896,8.300536308247834,1.6163033023210192,-3.9086636928859795,9.316060929047183
1535,15.393756866455078,7.192083232709447,3.1548698664959356,-4.277090883123199,8.942749662337643
1536,15.40045404434204,5.976312161252709,4.78657637054192,-4.548361655586637,8.90590894573811
1537,15.411220073699951,4.620124066733861,6.476045664067715,-4.716160485481951,9.248074586632885
1538,15.422138929367064,3.079031156349668,8.175897177656159,-4.783657589722117,9.960376873245506
1539,15.430680751800535,1.3054789797772943,9.825414058704695,-4.762228913680714,10.996447654489554
1540,15.441094875335692,-0.7404222164958603,11.350932523657596,-4.669910879618424,12.296339367425045
1541,15.450849056243896,-3.079216870750393,12.669161568591857,-4.529803601712912,13.802476301674638
1542,15.461030006408691,-5.701262847537821,13.694181991202369,-4.368151755117109,15.463368592277007
1543,15.479732990264893,-8.558590651466327,14.347933223066239,-4.211757021381705,17.229380688814466
1544,15.482004880905151,-11.561148975451408,14.572868680678551,-4.0846733592531725,19.045031469353773
1545,15.494380950927734,-14.578685968723484,14.344379576306654,-4.004598405150544,20.84073219419972
1546,15.501163005828856,-17.44875495589445,13.679894908412422,-3.9797950285523864,22.526369940257787
1547,15.511401891708374,-19.990316517304276,12.641770998993012,-4.007663387332544,23.989341263968768
1548,15.5227370262146,-22.021502395143965,11.332392067778938,-4.076014139119903,25.099473480124953
1549,15.531362056732178,-23.37969939452372,9.881811103957157,-4.167201036451531,25.722093595793993
1550,15.541438102722168,-23.942162021522424,8.429930633416449,-4.263626116196025,25.73848014953005
1551,15.551355838775637,-23.645378805647358,7.10623697292327,-4.351948696701675,25.07073992200115
1552,15.561429977416992,-22.5008369066651,6.010665395918698,-4.423975978133761,23.706271816908313
1553,15.583132982254028,-20.60366556730088,5.1994450088183966,-4.474516898928419,21.715583452619974
1554,15.583996772766112,-18.129971569452948,4.679152447363088,-4.498300785727559,19.256818187169795
1555,15.591460943222046,-15.319786515793648,4.41021142875789,-4.487556222925809,16.561521203976397
1556,15.601545810699465,-12.445419128006252,4.318734370649982,-4.430472296502579,13.898525411210148
1557,15.611201763153076,-9.768953696846268,4.313945417323735,-4.311144472356246,11.516446850322483
1558,15.623097896575928,-7.497445821843102,4.306929190682435,-4.1126316529577736,9.574710022655267
1559,15.631436824798584,-5.748429575329902,4.225774763597577,-3.823564692196787,8.09452048552597
1560,15.64113998413086,-4.537575874411199,4.0244352365764735,-3.445647143012441,6.975539980789064
1561,15.651200771331789,-3.7925325868841364,3.68624624027059,-2.9972870639254774,6.079098988342117
1562,15.66205883026123,-3.3859457725502864,3.223694914225778,-2.510448802216821,5.306523425295338
1563,15.678651809692385,-3.1738052483669703,2.6739005988721005,-2.022768756915662,4.616749680366528
1564,15.681285858154297,-3.0268987473124507,2.0889803679906,-1.5694451992882545,3.99863892317133
1565,15.695292949676514,-2.850142652155547,1.5232485879264779,-1.177391052879703,3.439454766333966
1566,15.70130205154419,-2.5901876379244437,1.0212923033308479,-0.8619081793531711,2.9146175869460706
1567,15.711464881896973,-2.233741928904576,0.6101742670554213,-0.6257909652322288,2.3986516990361983
1568,15.721377849578856,-1.799716979258318,0.29712928854858617,-0.4606549698646971,1.8813479265689055
1569,15.731430053710938,-1.3284029013979521,0.07272574051275235,-0.35007228303058413,1.3756794339968417
1570,15.742344856262209,-0.8696654910085536,-0.08188965624488231,-0.2743205829653838,0.9155740080897457
1571,15.751995086669922,-0.47070892069429965,-0.18653531865818782,-0.2161872115758318,0.5505444791994899
1572,15.761929035186768,-0.16442157420273656,-0.2557622267574561,-0.1655765905264287,0.3462143527203848
1573,15.779733896255491,0.03858543322616045,-0.2970550925523937,-0.11997194405197069,0.32268224467449536
1574,15.781413078308104,0.15052573209314227,-0.313087992306717,-0.08048880795125055,0.3565957587440443
1575,15.795670986175535,0.1987951102079007,-0.3054445027113035,-0.04698326373148836,0.36745512263402924
1576,15.801506042480469,0.21396668713859637,-0.27717195078233803,-0.016173582023849796,0.3505247755309673
1577,15.812686920166016,0.21949378692353103,-0.23336613771022022,0.01631205806711364,0.32078553578084346
1578,15.822086811065674,0.22722895892982659,-0.18055176622504074,0.05242140354626154,0.29492362335539446
1579,15.832427978515623,0.23877640085449883,-0.12577477569594517,0.09001722128257282,0.28449352177831627
1580,15.841636896133425,0.24994562133671294,-0.07571866107842194,0.12436085884605642,0.28926069984329567
1581,15.852335929870604,0.2554967729908335,-0.03576169970395018,0.15121588194608182,0.29903802956676995
1582,15.862173080444336,0.2526402988289767,-0.00900482373321014,0.16900296793389127,0.30408914912131396
1583,15.88114094734192,0.24270940652808753,0.004384568294820828,0.178701478697093,0.3014320801521895
1584,15.8833429813385,0.23080048642338505,0.007117985206120107,0.18218507831991443,0.29412740948286176
1585,15.896234035491943,0.22361695619044358,0.003945002626628568,0.18062047517817742,0.28747845518437287
1586,15.901808977127075,0.22647939231122877,0.00035246450381058367,0.1740139916156626,0.28561146449487246
1587,15.91233491897583,0.24095545692793288,0.0013258969450868688,0.1618397139284301,0.2902643333764829
1588,15.922279834747314,0.2642706625117469,0.010592505828407425,0.14400706977412314,0.30114650984039587
1589,15.933027982711792,0.2906888008583528,0.03045658313336491,0.12156074576077323,0.3165510974717068
1590,15.942372798919678,0.3140589821458805,0.062025402328087474,0.09701419993324419,0.3345025407813147
1591,15.952417850494385,0.33029695991597824,0.10548298169698209,0.07449330575293063,0.3546434741531596
1592,15.962707042694092,0.3387751858860885,0.16017898894310953,0.05971531951904087,0.3794625863721637
1593,15.983340978622437,0.3421825180221004,0.2245886755733643,0.05957942819261844,0.41361655805770436
1594,15.984519004821776,0.3451388007029132,0.29640036288195115,0.0811814647880567,0.46213028151413327
1595,15.996654033660889,0.3524225430538599,0.3728894229974473,0.13034535537411876,0.5293751810422588
1596,16.002010822296143,0.36769886592850987,0.45151459524364246,0.21002403248787832,0.6190137154745539
1597,16.01267695426941,0.3931091194566584,0.5306002803331962,0.31903555813505574,0.7333860679370738
1598,16.022613048553467,0.4295579482156381,0.6100026984471321,0.4515007482347844,0.8720528932608284
1599,16.03235387802124,0.4774017137446158,0.6916680279068661,0.5970695331926974,1.0309263235468453
1600,16.04206895828247,0.5373150227865612,0.7800099274007165,0.7417929868377312,1.203070968761792
1601,16.054265022277832,0.6111370882149223,0.8820679183410103,0.8694609240048551,1.3811207954156772
1602,16.06271505355835,0.702521818537657,1.0074040095103485,0.9632804003958062,1.5608679872704443
1603,16.083364963531494,0.817313186227224,1.1676774264683536,1.007775522861861,1.74558956262466
1604,16.08452081680298,0.9636628373845301,1.3758616988471264,0.9907312495981242,1.9501768861928306
1605,16.09709596633911,1.1519145780543705,1.64513696890744,0.9049610383726132,2.202802152389673
1606,16.102367877960205,1.3942242677255758,1.987567188169913,0.7496769008814309,2.5409250464977826
1607,16.112433910369873,1.703829531421142,2.4127126550557603,0.531237391532907,3.001071574316696
1608,16.122384071350098,2.093863408580395,2.9263023853451897,0.2630457628632057,3.6078667793627224
1609,16.13254976272583,2.5756285708186852,3.529017597386252,-0.0355583793305238,4.369106560364481
1610,16.14247488975525,3.1563298102821826,4.215388043888007,-0.34136151157791733,5.27716229743
1611,16.15334701538086,3.836423253946795,4.972836854793327,-0.6299320120145518,6.312215467454767
1612,16.162935972213745,4.606967443489766,5.7810243311137075,-0.8782734012850547,7.444175945644228
1613,16.181123971939087,5.447560612552486,6.611773836117976,-1.066904967923071,8.633061803206692
1614,16.18246293067932,6.325492806329892,7.42993307512749,-1.1810990366234717,9.829077254662186
1615,16.197596073150635,7.196598358741957,8.195480205818585,-1.211369339004286,10.973802413771233
1616,16.202563762664795,8.00806554146672,8.866981272720546,-1.1534776133800337,12.003457052523347
1617,16.21274185180664,8.703255028708067,9.406096067254065,-1.0082088550455446,12.854484681096201
1618,16.222783088684082,9.228373633488394,9.782322735073482,-0.7812825840196697,13.470973256913984
1619,16.233180046081543,9.54051023326749,9.976884021052182,-0.4840327139882716,13.812814266065367
1620,16.242775917053223,9.6159952449246,9.984763072349704,-0.13528470880420698,13.862941971811289
1621,16.252760887145996,9.457409319115818,9.814197224928037,0.23608771433207193,13.631463443370357
1622,16.26268482208252,9.097106223417931,9.483296129457852,0.589532276279288,13.154383125936183
1623,16.28221297264099,8.59522526945851,9.014192437128699,0.8744303074903085,12.485919713380506
1624,16.28446888923645,8.0313218712527,8.42646301059741,1.0369927442053524,11.686862873336148
1625,16.29811191558838,7.4909234533955384,7.732641930873227,1.0318398073553754,10.815376960780116
1626,16.302859783172607,7.050420356375793,6.938177518111506,0.8335081012001134,9.926805640748302
1627,16.312935829162598,6.764307065256038,6.046092522061592,0.4420391884892476,9.083307960350243
1628,16.322956085205078,6.6577074689670175,5.064273674008936,-0.11926705797992743,8.365773199096326
1629,16.333752870559692,6.725376396579042,4.012060891807909,-0.8110720743668517,7.873065361411318
1630,16.343540906906128,6.93677428982414,2.9230431831287658,-1.5859402804786666,7.692738496247321
1631,16.353436946868896,7.245468357995953,1.842519795283955,-2.394642602037037,7.8502231888160035
1632,16.36343002319336,7.600161817199107,0.8203005342173066,-3.1909232561161542,8.283558645924549
1633,16.384861946105957,7.954496299165337,-0.09861802433955175,-3.9355552016410136,8.875377830454505
1634,16.386077880859375,8.273541448791038,-0.8822182032538123,-4.599573361093108,9.507148477177214
1635,16.398622035980225,8.536209751131246,-1.5157151604539463,-5.16576412997684,10.092045799018823
1636,16.40313196182251,8.734137582033243,-2.0006951466778347,-5.62787071222097,10.58115632269462
1637,16.413245916366577,8.868381793896688,-2.349928829453153,-5.988081033437779,10.95570516255483
1638,16.423819065093994,8.945407382314668,-2.5802268114336995,-6.25415105562033,11.215716163514836
1639,16.434216022491455,8.97345517595755,-2.7061459883669703,-6.437316139266608,11.37036336192192
1640,16.44550895690918,8.959846782265597,-2.7365368119104896,-6.551135224614822,11.431747933531666
1641,16.453670978546143,8.909370332040906,-2.674337109371751,-6.610564295730449,11.411771071836297
1642,16.46371293067932,8.823623843960297,-2.5185448475409418,-6.630655650917366,11.320998200239329
1643,16.488944053649902,8.701024177388836,-2.2667147941549297,-6.6249555446030035,11.168520656806432
1644,16.490137100219727,8.537132794749004,-1.916725657255135,-6.604070740600291,10.962218021331813
1645,16.493349075317383,8.325006603813547,-1.4674088851801568,-6.574836978632261,10.709225232734395
1646,16.50351595878601,8.055373468662825,-0.9183404666651217,-6.5403146939491625,10.416722480139278
1647,16.513365983963013,7.71649283457628,-0.26944821446692535,-6.5005401847902125,10.093259468596795
1648,16.523406982421875,7.29362675300636,0.47889677849951534,-6.453657853490957,9.750693976664062
1649,16.533556938171387,6.768190191749328,1.3248642723493216,-6.396948815375255,9.406626279297504
1650,16.54611301422119,6.116882528960446,2.263166652619406,-6.327418326888954,9.0870456064708
1651,16.554080963134766,5.311339872928453,3.2824515668703733,-6.241872984606115,8.828691742866836
1652,16.563973903656006,4.318961596403098,4.362786921128891,-6.136631947692077,8.6801837913614
1653,16.59036087989807,3.1054609994793725,5.4740169181494585,-6.007112977875265,8.700238822493976
1654,16.5915470123291,1.6393565485456616,6.575568145839827,-5.847550511162453,8.95094594523055
1655,16.594614028930664,-0.10187358149890037,7.61793764361134,-5.651048162027728,9.485657462617711
1656,16.604805946350098,-2.1247615793549084,8.545785104957845,-5.410019723123897,10.335055308696306
1657,16.613703966140747,-4.413087416735804,9.30238989891354,-5.11688924817993,11.497493377136598
1658,16.624080896377563,-6.922618441708708,9.835192525690756,-4.7648395982779395,12.936667055474771
1659,16.634160041809082,-9.578439191399758,10.10209177366751,-4.348495150655147,14.584518011309628
1660,16.64483094215393,-12.275686436524767,10.077998498601602,-3.8646333979563336,16.346067494241353
1661,16.654726028442383,-14.884179353638176,9.76082824683043,-3.3131873230625173,18.104965433081997
1662,16.66435194015503,-17.257008833335497,9.175730104845194,-2.698753106675689,19.730221619677096
1663,16.687412977218628,-19.24256005266624,8.376118353790151,-2.032487417719328,21.0847452239849
1664,16.68831205368042,-20.69882247761004,7.440283496259825,-1.3338485653532868,22.03583949977005
1665,16.69458293914795,-21.508490990353536,6.463118803844455,-0.6314047073609771,22.467437799161804
1666,16.704197883605957,-21.59340942709161,5.543612207330279,0.03800691176388865,22.29368546285275
1667,16.714550018310547,-20.92711861498532,4.7699249808096,0.6321856904606128,21.47314920069806
1668,16.724373817443848,-19.544268856174554,4.204916820926614,1.1083543472902493,20.022193185375656
1669,16.73450994491577,-17.545275879152726,3.8755742118877246,1.4288710630231387,18.024939768614278
1670,16.74520778656006,-15.09403268624102,3.769282828793463,1.5667320907765883,15.636238845100145
1671,16.755045890808105,-12.406189368951807,3.8379151575678465,1.510606948546572,13.073831143470494
1672,16.764771938323975,-9.726120430899819,4.008296072594086,1.2696281078944511,10.596028103695067
1673,16.788608074188232,-7.2930930734619315,4.1963310051351455,0.8764890966186796,8.459706473591645
1674,16.789500951766968,-5.301793405624982,4.322005668183815,0.3855656143031986,6.851088027070924
1675,16.794904947280884,-3.8676658311347065,4.322468643476542,-0.13570882024516123,5.801809290131588
1676,16.804106950759888,-3.0093768448885303,4.160664707421312,-0.6203483895708463,5.1722637139434084
1677,16.81428098678589,-2.6556860808532274,3.8285901830943136,-1.0159624664665066,4.768957022598593
1678,16.824814796447754,-2.6736188710347393,3.346102345562435,-1.2944618010671218,4.4744016503833715
1679,16.835432052612305,-2.9056071925048785,2.756192744382523,-1.453468672088619,4.260483867128944
1680,16.84748387336731,-3.2017129543262937,2.116716765732502,-1.5097378564666535,4.124410758336564
1681,16.854382038116455,-3.439645869871225,1.4892537504604313,-1.4888392238246084,4.033073601830408
1682,16.8645920753479,-3.533488688666523,0.9274812370400067,-1.4159304794613048,3.91798709552023
1683,16.88841199874878,-3.435516114698018,0.46800400958263927,-1.3103952636874516,3.70660686807081
1684,16.88957977294922,-3.1345201929143163,0.12571304928497712,-1.184261924981556,3.3531324038142527
1685,16.8953537940979,-2.6521400529755774,-0.10563467501909976,-1.0425898292675009,2.8516660213383553
1686,16.90550708770752,-2.0372876931564976,-0.24824458175458183,-0.8848036866921041,2.2349595255935553
1687,16.9149649143219,-1.3578949791582784,-0.3320600957064834,-0.7076623866323781,1.5668212198710143
1688,16.924928903579712,-0.6893863397557078,-0.38556131353058315,-0.5102754856703209,0.940368078578427
1689,16.935919761657715,-0.10088562103346267,-0.42812790729185124,-0.2992138863931884,0.5319777846338354
1690,16.947109937667847,0.3576899906675515,-0.4665915308959712,-0.09018048160616506,0.5947960199852711
1691,16.955041885375977,0.6636631029989477,-0.497345347860255,0.09571464972618206,0.8348427417739437
1692,16.965063095092773,0.8222750790860315,-0.5126047078658189,0.2394524291999605,0.9981169060094628
1693,16.99171209335327,0.8604212474200561,-0.506964317211664,0.3314102601079057,1.0522216032958853
1694,16.992933750152588,0.8163107206465233,-0.4806916574743502,0.3747290481941935,1.0187489984134515
1695,16.99641704559326,0.7288502532176618,-0.43900059106649997,0.38296576106010166,0.933063226537478
1696,17.00468397140503,0.6298419701223061,-0.3890221274950842,0.37322083719185617,0.8290554362179525
1697,17.01478910446167,0.5402793577589329,-0.3367192615270002,0.3587031466532874,0.7307185456266067
1698,17.025755882263184,0.47020201160688707,-0.28535162482122733,0.34501911130753854,0.6492716447487302
1699,17.035258769989014,0.4207568720399545,-0.2359564249222587,0.33159690324127283,0.5853787543720238
1700,17.047653913497925,0.3873488208043057,-0.18887836017594467,0.31597591255817525,0.5343733912146185
1701,17.054982900619507,0.36318458465464676,-0.1447211046706978,0.29728686637535334,0.4911483702377038
1702,17.0652117729187,0.3425435640820971,-0.10400218922828793,0.276894283014363,0.4525737427473897
1703,17.09158492088318,0.32298855917472463,-0.06625184551582103,0.25700756920098905,0.41804761333921997
1704,17.092785835266113,0.3059186489425648,-0.029733285553626913,0.2394341112645693,0.38961388794255253
1705,17.09578800201416,0.29546404451582614,0.00783389949806836,0.22563080518341674,0.37184624756841755
1706,17.1059627532959,0.29641108102465064,0.048153902165030286,0.21740606847290903,0.37073403655015075
1707,17.115485906600952,0.31215869066039864,0.0916784658604069,0.21704073996239243,0.3910941984493698
1708,17.125672817230225,0.343463251635137,0.13768048001359978,0.2264631211896546,0.43382999557374646
1709,17.135560035705566,0.3881981688446541,0.1847647234797835,0.24616665295477963,0.49541279995965215
1710,17.146679878234863,0.4419300874640405,0.23134306215663009,0.27474694119214593,0.5694801983461948
1711,17.155416011810303,0.4989472061096992,0.2758573992752324,0.30931767822427314,0.6486316715067378
1712,17.165424823760986,0.5533886415956055,0.31684825120321336,0.3463670502382616,0.7256734364907665
1713,17.190127849578857,0.6002026605131954,0.3530851752594569,0.38240235245565635,0.7944456770848083
1714,17.191123008728027,0.635755853889804,0.3838746124280659,0.4140317501641042,0.8502749637416728
1715,17.19525384902954,0.6580209388640111,0.4094855995780397,0.4375940767407821,0.890032914135134
1716,17.2062029838562,0.6663888722638145,0.43155239449771676,0.4487126840635156,0.911951024514604
1717,17.21519708633423,0.6612736508565481,0.4533646356366423,0.4421259050637112,0.9155859599685324
1718,17.226276874542236,0.643777076920133,0.48004173767128006,0.41197402778656483,0.9025583605756351
1719,17.235403060913086,0.6156973498986069,0.5186109759538994,0.3525649209233962,0.8788302421501801
1720,17.24605393409729,0.5800498553632975,0.5779629384980872,0.259554950177059,0.8589922963250263
1721,17.25555181503296,0.542049363130081,0.6686005848098696,0.1314294908521292,0.8706996986007725
1722,17.26560688018799,0.5102890460572795,0.8021030140031716,-0.02890897139705356,0.95110456009119
1723,17.289956092834473,0.4977404939809891,0.9903373498089705,-0.21275071686788335,1.1286170888759803
1724,17.290924072265625,0.522205834140201,1.2445966097194385,-0.4047979433778662,1.409106464784735
1725,17.295235872268677,0.6059451506455487,1.5748508386466644,-0.5834005478259428,1.7854077654083869
1726,17.30643892288208,0.7743457597064954,1.989131714832659,-0.7220154085977055,2.2533447549767116
1727,17.3154559135437,1.0536569932712239,2.4928923503575553,-0.7917717077189143,2.8198595296724798
1728,17.326469898223877,1.4679488396904006,3.08816538603838,-0.7647681131500698,3.503785026848121
1729,17.336145877838135,2.035556196749312,3.7724894753988854,-0.6176153664697921,4.3308907412932385
1730,17.345809936523438,2.7653612244856918,4.537760369486579,-0.33470313118251527,5.324520453411307
1731,17.355814933776855,3.6533592910437918,5.369255009443558,0.08930698496836041,6.4949141028542385
1732,17.365993976593018,4.680013390952387,6.245050678164149,0.6481137509682368,7.83091531984137
1733,17.39122200012207,5.808850002512183,7.136019549026781,1.3236079550267557,9.296098717977788
1734,17.39238405227661,6.986583021142096,8.006622060775495,2.0867142822602824,10.829252773446417
1735,17.395609855651855,8.144914738552764,8.816771153924687,2.8990603767453487,12.348264685654717
1736,17.406789779663086,9.204225237951533,9.524877533463373,3.7156072095127524,13.756699865658277
1737,17.415711879730225,10.079589869486917,10.091800342655143,4.4884543181648455,14.952885616473175
1738,17.427238941192627,10.689575722461807,10.485103061091007,5.171407956368585,15.841334400205595
1739,17.43638801574707,10.967626316914652,10.682888630048678,5.724264958753711,16.3456460816793
1740,17.44619393348694,10.874653226779458,10.676388527971381,6.116001002219294,16.42098727427956
1741,17.456230878829956,10.410321533021692,10.470404890476557,6.326729356500826,16.06336444652302
1742,17.466394901275635,9.61993410320238,10.080995258948532,6.34867145298014,15.312583935403715
1743,17.491829872131348,8.594093774116162,9.530670799724442,6.186528376893101,14.246587909009158
1744,17.493000030517578,7.459778758263922,8.842534452128184,5.857657377406158,12.967299819561523
1745,17.495905876159668,6.363896648806908,8.035450665829028,5.392058006194682,11.581966046480888
1746,17.507125854492188,5.452569073029713,7.121981493737685,4.831426964840079,10.188023184597
1747,17.515957832336426,4.850115634448602,6.109741332750797,4.22608917367053,8.872000367699581
1748,17.526805877685547,4.641151183238303,5.005684027375329,3.6290946168208658,7.730943320542001
1749,17.53642702102661,4.858590245797453,3.8218850658558163,3.088175316539913,6.910103575117834
1750,17.5461208820343,5.479969514631926,2.5806588183201877,2.637665152202351,6.606598464642124
1751,17.556565761566162,6.43330634829944,1.316778805329208,2.2926457592561973,6.9553980166967815
1752,17.566608905792236,7.611191035765727,0.07559625461167258,2.046381702597574,7.881853960164323
1753,17.59110975265503,8.889253884955238,-1.0923498331277934,1.871015727347174,9.149467888413325
1754,17.592301845550537,10.1442994777883,-2.1381504064539176,1.7214325861568132,10.5091307539852
1755,17.596168041229248,11.268587457432949,-3.020434570999835,1.54221832565792,11.767859858423758
1756,17.606380939483643,12.17887876265904,-3.7090040544106437,1.2769033694752192,12.795010011960098
1757,17.61614990234375,12.820639441405858,-4.186194544846794,0.8777823830428311,13.51530696528262
1758,17.627171993255615,13.168511183613733,-4.446772212012314,0.31426133928339595,13.902597961814655
1759,17.636329889297485,13.224005016015234,-4.497096939765042,-0.42204259907311564,13.974130008865401
1760,17.647012948989868,13.011058576831894,-4.353752897966937,-1.3163662160722585,13.783164716461988
1761,17.65690588951111,12.570084367721664,-4.041499100742816,-2.3337381373577735,13.40847007255875
1762,17.666640758514404,11.951296393731326,-3.590445110331757,-3.42460045590874,12.940350453667433
1763,17.690985918045044,11.208133732022516,-3.032580869321884,-4.531714557745424,12.46415842793888
1764,17.692041873931885,10.391447987291265,-2.3979665909994523,-5.59709369937663,12.044081240332563
1765,17.696319103240967,9.544878385423038,-1.7110402334096109,-6.56788461695801,11.711937090615539
1766,17.706501007080078,8.701576835992057,-0.987675515383054,-7.400439514558268,11.465576625926676
1767,17.71650195121765,7.882237301500781,-0.23371352767148565,-8.062343943693971,11.2776627346541
1768,17.726501941680908,7.0942827737292,0.5544788905562068,-8.53268314771273,11.110489485750128
1769,17.73741388320923,6.332054870754838,1.387347102969703,-8.801117718604859,10.93065981389545
1770,17.746928930282593,5.577868568862799,2.277904315563781,-8.866384974309563,10.719806358094068
1771,17.756571769714355,4.8037826035526265,3.23682737640267,-8.734753596085133,10.480901638272673
1772,17.76704978942871,3.9739093603826503,4.267824594046854,-8.41879746412701,10.24121248251785
1773,17.791555881500244,3.0471199464723573,5.363917172721207,-7.936616770686578,10.052185492157744
1774,17.792715072631836,1.9801335240850122,6.5049442207075625,-7.31135296399994,9.984543567530404
1775,17.7966570854187,0.7311538372511,7.6564150796391655,-6.570639358922521,10.115758962652025
1776,17.80675196647644,-0.7357064586542604,8.769819612283412,-5.7456223489435105,10.510146345411918
1777,17.81677484512329,-2.445101111743309,9.784610889164611,-4.869372272716777,11.199460524030163
1778,17.82746696472168,-4.404442191027921,10.63221245883853,-3.9747552939692197,12.175456148782452
1779,17.837142944335938,-6.597838645348187,11.242421492608193,-3.092038463437379,13.397172002586398
1780,17.847074031829834,-8.980968692648313,11.552239089239336,-2.246586294711291,14.804025689415127
1781,17.85731601715088,-11.478079701795336,11.51631131232119,-1.4569658391673497,16.324658934861816
1782,17.867296934127808,-13.982271190309918,11.117066149637264,-0.7336528674534882,17.878235761525918
1783,17.890172958374023,-16.359843903353184,10.371952269425828,-0.07843445588275759,19.370803761981577
1784,17.89110803604126,-18.45887088115005,9.335451149387305,0.5153109533901012,20.691691756554125
1785,17.897950887680054,-20.121576652492188,8.094650817475976,1.0609722121623413,21.71466971597689
1786,17.90703797340393,-21.199842752734238,6.758687060540404,1.575077423871815,22.30681627696264
1787,17.91707706451416,-21.573000688231392,5.443887856075656,2.0717259084016915,22.345521294512306
1788,17.9273738861084,-21.166513628537626,4.257593425078059,2.556612537646564,21.741312486324016
1789,17.937593936920166,-19.96901171289573,3.28393322523026,3.023135178530322,20.461793482615487
1790,17.94742774963379,-18.044087976469477,2.574215220921214,3.452084507755334,18.550810827424154
1791,17.95736789703369,-15.533328076006221,2.14326737680734,3.8142606243056885,16.13773405021469
1792,17.967106819152832,-12.648555982151766,1.971465763563423,4.074545436382755,13.434082261311246
1793,17.993189811706543,-9.653185732858505,2.011005204967689,4.197312741297727,10.716602585508635
1794,17.9941987991333,-6.833412131725685,2.1948387659438082,4.154408573836844,8.292885454947186
1795,17.997920989990234,-4.459998021966144,2.447081540187024,3.935439673806638,6.4317552694763895
1796,18.00785493850708,-2.7434157775185914,2.693403930314803,3.555928094440688,5.236924619755926
1797,18.01740789413452,-1.7912159358276483,2.86932553166205,3.057003407822426,4.55924921131194
1798,18.02721691131592,-1.582769549957544,2.925018135057263,2.4950167318559933,4.157643446825141
1799,18.037487030029297,-1.9743686667228524,2.8275147853786056,1.9269074412644787,3.950435897577888
1800,18.04833292961121,-2.7350945903951827,2.562631026031692,1.3995836911095456,4.000831751324848
1801,18.05813503265381,-3.6004598946627016,2.1372620662525024,0.9470764082661366,4.29280261787224
1802,18.06966495513916,-4.326620398774414,1.5799565460882683,0.5925541432883286,4.644031349522331
1803,18.0911169052124,-4.732842984834497,0.9375581554573155,0.34969595737734405,4.837468891534879
1804,18.092025756835938,-4.726873394527582,0.26810417135046694,0.2212171181217909,4.7396359509922625
1805,18.09799289703369,-4.311685570710938,-0.36827997125496986,0.1967441095976045,4.33185535799221
1806,18.108579874038696,-3.573522104354051,-0.9188836072124037,0.25294935988690365,3.6984308419352496
1807,18.117536067962646,-2.653658577920182,-1.3465666079435843,0.35689509402658237,2.997085181628693
1808,18.1275577545166,-1.7105471567597106,-1.6340435328824254,0.47200575534856604,2.4122311821083358
1809,18.13766574859619,-0.8821058874932852,-1.7823608736585514,0.5653367496196827,2.0674928587953425
1810,18.148398876190186,-0.25782319340694965,-1.8046522885345568,0.6139334336019212,1.923579200985968
1811,18.15772581100464,0.13291338990017754,-1.7193656911733417,0.6080317715863319,1.8285477801952983
1812,18.16994595527649,0.3152803515314645,-1.5468151929787664,0.5506120684746092,1.6718889290983507
1813,18.19210195541382,0.35066903756582396,-1.3092115124850696,0.4545015353732315,1.4295367095627205
1814,18.19297695159912,0.3127653086487364,-1.0312640639553685,0.3381885199560482,1.1294685400355091
1815,18.197810888290405,0.265370441047541,-0.7388636396298105,0.22105974460008024,0.8156030649963434
1816,18.20787000656128,0.24775032337113384,-0.45599018776253986,0.11897251776689532,0.5324112452324913
1817,18.218804836273197,0.2705169478116072,-0.20180109545913336,0.04131974372381452,0.3400153267180992
1818,18.22879195213318,0.32131147806808724,0.010574391080345273,-0.009450253656203571,0.32162430097737577
1819,18.237849950790405,0.3763408819164332,0.17361541633081232,-0.035748880325882935,0.41599609930132075
1820,18.24863696098328,0.4125997108682746,0.2844213770442739,-0.04151014466616945,0.5028490163444204
1821,18.258848905563354,0.4165768366709334,0.3439704322726379,-0.029708337078405988,0.5410494472971497
1822,18.269933938980103,0.38752771457427215,0.35669264574179377,-0.0018839019120870442,0.5266981319274388
1823,18.292380809783936,0.33575468546487025,0.3299756266994476,0.04090066103905057,0.4725335830401247
1824,18.29324579238892,0.277769444241488,0.27329385414216595,0.0968539470130979,0.40152967750606
1825,18.29793691635132,0.23047557853084744,0.1970396434362114,0.1625455608581812,0.34404167296898613
1826,18.307969093322757,0.20609014284495036,0.11144064026985621,0.2323018145154517,0.32993377564108056
1827,18.319308757781982,0.2089440333562126,0.02588364525085163,0.29800143775047666,0.3648731684681476
1828,18.329104900360107,0.23474212044866122,-0.0513896049598584,0.34957739131937854,0.4242040866520807
1829,18.339629888534542,0.2722843756967319,-0.11351718901635766,0.3764088609894724,0.4782348419784222
1830,18.34863376617432,0.30700528543859923,-0.15540002380192794,0.3693498760705386,0.5047977254685264
1831,18.358757972717285,0.3251329867128787,-0.1741289801686561,0.3227360309408377,0.49009275290587445
1832,18.37053394317627,0.3171306022310225,-0.16914441409650094,0.23567285158335882,0.42979453773273046
1833,18.39223003387451,0.27951888459402285,-0.14191519915344974,0.11224559076660329,0.3329711747914431
1834,18.39321279525757,0.21492379442655618,-0.09517811438276692,-0.039287250478431554,0.2383161742692314
1835,18.39830207824707,0.13079926168181558,-0.031924061858986746,-0.20798588188861072,0.24776141678450989
1836,18.409300804138184,0.037548833104596016,0.04570413128677247,-0.38197902433678266,0.38653170312081225
1837,18.41974687576294,-0.053229181971052045,0.13749325584516092,-0.5500606956242685,0.5694774008570177
1838,18.428330898284912,-0.129845418869539,0.24610186956047808,-0.7028196129965705,0.755897725499434
1839,18.4389009475708,-0.18077065581779264,0.37769002230708987,-0.8331373693551738,0.9324407000829512
1840,18.44844484329224,-0.19417297666189182,0.5420460108851904,-0.9360820852135154,1.0989843916270925
1841,18.45884394645691,-0.15712457731241067,0.7520994719377033,-1.0084089727323664,1.2677659108730295
1842,18.471632957458496,-0.054952150240118354,1.0228527904209213,-1.0479729244480238,1.46543332160287
1843,18.492558002471924,0.1288625055802702,1.3698673216775046,-1.053320163402672,1.7328085269223938
1844,18.493435859680176,0.41199432678919085,1.8074555873388851,-1.0235885773359847,2.1176327824157184
1845,18.49836897850037,0.8117545042054223,2.3466893727879192,-0.9586864447426853,2.661761838855407
1846,18.508548974990845,1.342847776457284,2.993301584943711,-0.8596225197636753,3.3914665567638513
1847,18.520161867141724,2.014616106894968,3.745582301866499,-0.7288499252215775,4.315007190227113
1848,18.52850890159607,2.8280440168655985,4.592444572600481,-0.5704894931169182,5.423452624988414
1849,18.538615942001343,3.7728746503614357,5.5119183567000825,-0.3902494361827429,6.690898424031575
1850,18.549467086791992,4.825278522118893,6.470385421477721,-0.1948165115594701,8.073856190920761
1851,18.559186935424805,5.9465911485781975,7.4229049507098726,0.009412640324704692,9.51112784024164
1852,18.57260608673096,7.083631358530321,8.315017207626797,0.21811142609330322,10.925425254006194
1853,18.593507766723636,8.171007599460458,9.086404541168427,0.43078979245645826,12.227579176660091
1854,18.59467387199402,9.135646019564023,9.676624605431089,0.6517851826870756,13.323735057166994
1855,18.59863495826721,9.903558734158011,10.03269949924661,0.8898779974503486,14.125417434307803
1856,18.609374046325684,10.408592208141775,10.11760872897174,1.156414346252482,14.561665161930257
1857,18.62074899673462,10.602488156082563,9.917857351114304,1.4621500362888329,14.59159114920448
1858,18.629255771636963,10.464971820556642,9.447720757067858,1.8131192863883294,14.214867718527977
1859,18.638818979263306,10.011757573710291,8.748019903108457,2.206355924192691,13.477060080156475
1860,18.649646759033203,9.297624333860993,7.878630981189581,2.627379353036337,12.46682664739211
1861,18.659498929977417,8.411869856948375,6.906225142384462,3.051483299224451,11.303408801462755
1862,18.669347763061523,7.465500437122244,5.891019201635374,3.449032997134863,10.116008730029556
1863,18.693346977233887,6.5731571300269,4.8769633501954335,3.7929034938372754,9.020935821118336
1864,18.69454598426819,5.83546732009027,3.888038011802303,4.0654994643921984,8.105418207596347
1865,18.69905710220337,5.3267299790124145,2.930567050234545,4.262896319541423,7.425265014556033
1866,18.71007490158081,5.089359845183546,1.999742619899017,4.394587791563836,7.015194654275047
1867,18.719532012939453,5.133493379268462,1.088267608907881,4.47968069656349,6.899610119909295
1868,18.729691982269287,5.4395058663277185,0.19502468932789127,4.542254391046299,7.08931122551694
1869,18.739593982696533,5.962233350999205,-0.6685931216773688,4.607929724892754,7.564936195611415
1870,18.74944305419922,6.636781690391797,-1.4768621516633949,4.701633450063268,8.266398860428248
1871,18.759591102600098,7.3859984461339385,-2.193194526279557,4.845497521055691,9.101753759740614
1872,18.76980209350586,8.129090759217926,-2.777612823844127,5.056306737051851,9.968123564138917
1873,18.79394292831421,8.790127896456873,-3.1954926198278746,5.342938618305409,10.771467615809048
1874,18.795058965682983,9.30489014869733,-3.424628154054023,5.704953797352182,11.439211358427956
1875,18.79942989349365,9.62500316523661,-3.458603238691609,6.133395731775021,11.925651575325304
1876,18.81033706665039,9.719304736631292,-3.3060542603995033,6.6139006598768715,12.212229987800301
1877,18.819926977157596,9.573300581305107,-2.9870153762446674,7.131018380109908,12.305355257586191
1878,18.829668045043945,9.18783999037738,-2.528381950379566,7.672012764456118,12.233924097923797
1879,18.84000301361084,8.577764240252904,-1.9602592626960773,8.228689129030103,12.04707352515811
1880,18.849318027496334,7.770642070639288,-1.313864073584566,8.796738975019755,11.810661860728935
1881,18.859864950180054,6.805220423417993,-0.62046168375047,9.37319065378603,11.599685372652555
1882,18.869791984558105,5.729102168118268,0.08969068992269535,9.953326422658117,11.48474479248801
1883,18.89363574981689,4.595404012713601,0.7890193817626007,10.528518166180927,11.51477244240906
1884,18.89481496810913,3.458572635872386,1.4546914060087957,11.085799365932482,11.703537898688163
1885,18.89942407608032,2.3699358398762973,2.0702394743123205,11.609087273841576,12.028025386479758
1886,18.9094979763031,1.3737706757466135,2.6260558908438965,12.081415697533625,12.439614972658484
1887,18.9195339679718,0.5045768154205512,3.118672107327464,12.487478127791213,12.880909264013399
1888,18.929585933685303,-0.21414204945884194,3.549331552464,12.815880009420663,13.300014725650913
1889,18.939531803131104,-0.7698093682233283,3.922540210659819,13.060535814291516,13.658569614862273
1890,18.950564861297607,-1.1600627359985765,4.24505164511805,13.220753867104495,13.93393490137407
1891,18.960131883621216,-1.39217036539082,4.525376705040024,13.299907522318014,14.117532105541768
1892,18.969961881637573,-1.483145528261453,4.773616698363083,13.303112748668509,14.211261233426097
1893,18.99553775787353,-1.4606796773909927,5.001249638678672,13.234732348979552,14.223368919403462
1894,18.99669981002808,-1.3644642706291834,5.2204320174554635,13.096612185786068,14.164601086496502
1895,18.999759912490845,-1.2469787027170078,5.442431702579116,12.887713282535453,14.045218843973515
1896,19.00972080230713,-1.1726019938993346,5.675060829321527,12.605247113516375,13.873484264791204
1897,19.02141094207764,-1.2141468432205487,5.919482468771638,12.246716632999664,13.656371902668285
1898,19.029746055603027,-1.4465945564090468,6.167368480424477,11.811876098077386,13.403338641558582
1899,19.039734840393063,-1.9386599302776466,6.3997033457694394,11.303817459856019,13.133578887906467
1900,19.05156898498535,-2.7434978886924775,6.588232925920874,10.72889451617046,12.88568086251404
1901,19.06029510498047,-3.8901553448316735,6.699717101573022,10.095651177867394,12.725631243801141
1902,19.070287942886356,-5.3772260184712835,6.702199570526394,9.413256113236992,12.745329708967216
1903,19.087560892105103,-7.16968282233501,6.571897956466931,8.690129628719875,13.042720095403986
1904,19.09584903717041,-9.199226917382553,6.299195640830706,7.933313509477497,13.683680237370883
1905,19.09994387626648,-11.367920831552023,5.892466871686123,7.148687273016873,14.664737283488796
1906,19.11007404327393,-13.554561525489301,5.378908970603699,6.3418444069676605,15.902131628951597
1907,19.11999487876892,-15.623265135326589,4.80210883349903,5.519685524511951,17.25148083577139
1908,19.1301748752594,-17.433886598694954,4.216709742071597,4.6929197922153465,18.540348949283658
1909,19.140002965927124,-18.85385657714836,3.6811479334445907,3.8788508055440154,19.59755702916191
1910,19.15063190460205,-19.770694380964034,3.249772045259551,3.102844427870081,20.274837069510514
1911,19.16006183624268,-20.104045543580067,2.965537224637163,2.3971980853913997,20.462492929984226
1912,19.17092084884644,-19.815761445510716,2.8539145920425923,1.7974463044338307,20.100747333902426
1913,19.18718695640564,-18.916395175385933,2.918193983417814,1.3370563271014775,19.18680750354426
1914,19.195101976394653,-17.466724449009938,3.136592708349419,1.0416747441099705,17.77666344025866
1915,19.200061798095703,-15.57355528070716,3.4622668347185854,0.9240554996929325,15.980512954299899
1916,19.210236072540283,-13.379770375116836,3.827434683919493,0.9806432113015519,13.950955976505547
1917,19.220768928527832,-11.049076228926706,4.151930450079858,1.1904602566513363,11.863296658079486
1918,19.23047089576721,-8.746485672258343,4.355334410704735,1.5166029103077538,9.88787306915108
1919,19.241739749908447,-6.616956868714974,4.371215991541825,1.9103309430132505,8.157267419852014
1920,19.250979900360107,-4.766815121871562,4.161647867611805,2.3171646308081755,6.7387752081791295
1921,19.26093292236328,-3.253837263314274,3.728663704874171,2.683431640784745,5.6294933458476715
1922,19.27076292037964,-2.089503584904457,3.1170200777846797,2.9613781466606386,4.780334708381892
1923,19.29549789428711,-1.2511478880354867,2.403521578499938,3.112464234702599,4.126708207318919
1924,19.29673385620117,-0.6971806749625152,1.6753637263536838,3.1101164295573165,3.6007955668886895
1925,19.30051898956299,-0.3790233802451948,1.0080975563568046,2.942581607942972,3.133481438481693
1926,19.310425758361816,-0.2474790199547362,0.453524016155753,2.6147900141607083,2.6653436395148673
1927,19.321229934692383,-0.25506091790721686,0.039010441326228586,2.1477290617947666,2.163173134368576
1928,19.330944061279297,-0.3569233200792059,-0.2276739909819764,1.575029510639712,1.6309345976991214
1929,19.341019868850708,-0.5119061192699839,-0.3536054778070766,0.9379626417660899,1.1255481447854854
1930,19.35097885131836,-0.6839321458174329,-0.35728573795106106,0.28030444346905137,0.8209670271418744
1931,19.36120891571045,-0.8436446298584674,-0.2652914948222555,-0.35633036424689546,0.9534606269785778
1932,19.371070861816406,-0.9700183116014879,-0.10821656614064204,-0.9363746913250263,1.3525693744069143
1933,19.396979808807373,-1.0512390210204265,0.08352303853528464,-1.4326752756423546,1.7789429509456025
1934,19.398169994354248,-1.0840425647051326,0.2829247993633222,-1.8268224371495712,2.1430060525020354
1935,19.4007887840271,-1.071426140714046,0.46807029257095767,-2.1079797050031024,2.410523223389027
1936,19.410637855529785,-1.019652688935287,0.6225015406958326,-2.2714112737897216,2.5664194803111773
1937,19.42075777053833,-0.9357968359367197,0.7350193991935913,-2.3175031990721453,2.6051468889584157
1938,19.43078374862671,-0.8265018346212896,0.7993153231059849,-2.2512296313549327,2.5278538568269426
1939,19.440841913223267,-0.6977937579449959,0.8133568182901094,-2.081629833328942,2.341291994923121
1940,19.45187187194824,-0.5554043687416536,0.778456343043113,-1.8210592223882824,2.0568726217942586
1941,19.46138906478882,-0.40512573209408526,0.6983057024462678,-1.4843134723796791,1.6896580118951778
1942,19.47133684158325,-0.2529296555096899,0.5783203948039322,-1.0878738071162446,1.257734991916826
1943,19.488306045532227,-0.10477502258292587,0.42532352078107816,-0.6494187930292484,0.7833407122232513
1944,19.49612808227539,0.03379000356986224,0.247363977491058,-0.18751917657088246,0.3122405215267066
1945,19.50101900100708,0.1580222003404591,0.05351811889369797,0.27867851995772014,0.32480289767208914
1946,19.511010885238647,0.26422364797520737,-0.14635491950269536,0.7298796273963382,0.7899102285071287
1947,19.52152395248413,0.34980160851431447,-0.3419215442480176,1.14714162810022,1.2470787555966842
1948,19.532076835632324,0.41318287356718525,-0.5227921918896502,1.5123695576203962,1.6526625311075864
1949,19.540987968444824,0.4536203326313321,-0.6790679916446346,1.808792989855897,1.9845999152485805
1950,19.551962852478027,0.4709484216286694,-0.8019441557209417,2.021540192340973,2.2252037196579297
1951,19.561683893203732,0.46541102103301213,-0.8842253019147994,2.138510672427935,2.360442691347004
1952,19.57143497467041,0.4377289493095483,-0.9206481271037424,2.151635587132821,2.380910604541815
1953,19.5897228717804,0.38947432544911287,-0.9080564632981881,2.0583537894099746,2.283216396467943
1954,19.598219871521,0.32359574768301824,-0.8455890339052476,1.8629376859903715,2.0712971404563136
1955,19.601295948028564,0.2447881926573931,-0.7349962843584905,1.5772480893670051,1.7572285943203656
1956,19.611243963241577,0.15944680774219802,-0.5810410843653294,1.2205324679099645,1.3611508114246575
1957,19.6213960647583,0.07509896325221709,-0.39180193095491567,0.8180533246384701,0.9101427631606003
1958,19.631425857543945,-0.0006332383302866654,-0.17865723792716925,0.39865820819156744,0.43686059173729463
1959,19.643664836883545,-0.06133908291490869,0.04423897012314729,-0.008289774460091276,0.076080811845024
1960,19.65177893638611,-0.10308107913760498,0.2610640198571017,-0.3760728541113765,0.4692663667253376
1961,19.66183495521545,-0.1252856387025041,0.4558737378172492,-0.6833420579129896,0.8309474858312793
1962,19.671600818634037,-0.13100965575163495,0.6142646566668196,-0.9159630262810139,1.1106182349682725
1963,19.69012188911438,-0.12645349220818475,0.7248333643605057,-1.067714328488282,1.296683376557669
1964,19.698424816131592,-0.11977060094523438,0.7802474113149016,-1.1398179939868367,1.3864761372380572
1965,19.70156598091125,-0.11942588970344159,0.7778417794878992,-1.1395261649463526,1.3848538759182147
1966,19.71150779724121,-0.13247617425028868,0.7197177326372954,-1.07815764145345,1.3030608010530547
1967,19.72160291671753,-0.16312946051484484,0.6124112939226113,-0.9690438472385295,1.157888073901222
1968,19.73155975341797,-0.21180784359842134,0.4662663703362429,-0.8257739807398174,0.9716838775976641
1969,19.744102001190186,-0.27475421505371617,0.2946240745926112,-0.6609450677107979,0.7740423803323481
1970,19.75214385986328,-0.34409149147225626,0.11289327112442664,-0.48542660818408884,0.6056259878026075
1971,19.762122869491577,-0.4082498408431206,-0.06242510058410771,-0.3080256281442449,0.5152131727013838
1972,19.77224087715149,-0.45277036176912794,-0.21469831416508406,-0.13538983109537894,0.519063361224727
1973,19.790812969207764,-0.46153370930417964,-0.3281277558347192,0.028005566413890258,0.5669792771551416
1974,19.799638748168945,-0.4184035144252595,-0.3887612207276012,0.1798920535444293,0.5987970762733021
1975,19.80174398422241,-0.3091942250684628,-0.385471400345602,0.3203239434200866,0.5888944710457735
1976,19.81180477142334,-0.12381560719862299,-0.31073656486375406,0.4519283250037697,0.56225148134087
1977,19.82280206680298,0.14161740245792337,-0.1611408113254629,0.5802944739325516,0.618678855489837
1978,19.83287787437439,0.4829652058741559,0.0623848989128998,0.7143658295550136,0.8645610470830046
1979,19.84406280517578,0.886752091580924,0.3545637710878375,0.8665522097287841,1.2895570836054566
1980,19.852302074432373,1.3294984774288672,0.7060457881618567,1.052262576191239,1.8366609337924615
1981,19.86242198944092,1.7778001133268408,1.1039894047391432,1.2886777645346292,2.4576525851973434
1982,19.87217688560486,2.189277003271609,1.5329664940299526,1.592748889467955,3.1112327289635218
1983,19.890067100524902,2.514520922574894,1.9761785394067333,1.9785497072731992,3.76068558029377
1984,19.898571968078613,2.7001504630251127,2.4169436959264567,2.4542415547348018,4.37672605508278
1985,19.902060985565186,2.6930700541056014,2.8403561525849903,3.0190594102971517,4.943173991753835
1986,19.91209506988525,2.445988440026616,3.2349278026150277,3.660865866829147,5.463474739741208
1987,19.921995878219604,1.9240754984490445,3.593942167622171,4.354884077567366,5.965190873475421
1988,19.932162761688232,1.1122889684434398,3.9161982688892643,5.064174519684666,6.497665672870194
1989,19.94330883026123,0.022476835531390696,4.205794132694926,5.742257686311835,7.1177758345394615
1990,19.952117919921875,-1.3009797386397166,4.4706974532868395,6.33794972863671,7.864432005040329
1991,19.962719917297363,-2.778284652207674,4.720205613501333,6.801845290270591,8.73294371876966
1992,19.97217798233032,-4.295155316998302,4.961893304499303,7.093122084317831,9.663390981710878
1993,19.989861011505127,-5.708344841286934,5.198939886291581,7.1850952784974496,10.547026639266965
1994,19.998995780944824,-6.856577856686007,5.4286198086917,7.06854035304534,11.244858187400459
1995,20.002592086791992,-7.577639818421503,5.642339898623297,6.752619001688845,11.61268651653409
1996,20.01231288909912,-7.731141578387197,5.827108756468732,6.263602636527643,11.53076166404882
1997,20.02277898788452,-7.223691988330911,5.967776413285645,5.641765974798405,10.937349065273434
1998,20.032824993133545,-6.029982310511783,6.048955011901759,4.937292985238488,9.865465291773196
1999,20.04392004013061,-4.202305296139513,6.05575859343195,4.206194107574868,8.486674897419169
2000,20.054286003112797,-1.8645538591242758,5.973549420490972,3.506322395587164,7.17315485086021
2001,20.06304287910461,0.8068906997462075,5.7878582044801234,2.8924893771275295,6.520496146253014
2002,20.07316493988037,3.6087986986104292,5.48559152027044,2.409980474694584,6.994508436106459
2003,20.089882850646973,6.337105011606359,5.057767917077715,2.087411348369237,8.37240720273732
2004,20.09928607940674,8.809559562639938,4.503183161414348,1.9313575651630035,10.080532739764246
2005,20.10283088684082,10.882836681537434,3.8318842196624052,1.925169569305123,11.697253899120637
2006,20.112555027008057,12.46271094865939,3.067044834440136,2.0326504563137897,12.994521772033522
2007,20.12356376647949,13.506932488357364,2.2440558974887734,2.2051408515309974,13.868513196849497
2008,20.13364601135254,14.021678034394961,1.4066207914191167,2.3896966373073685,14.293239204933387
2009,20.146255016326904,14.053340651563992,0.6008868997216067,2.536633941950134,14.293073857313255
2010,20.15305185317993,13.677689946219237,-0.1307025308270634,2.6055949039473427,13.924274136196392
2011,20.163209915161133,12.988236043427348,-0.7543854809084147,2.5696945540414067,13.261474392942166
2012,20.1728310585022,12.085214372872391,-1.2481416036966195,2.417442505706766,12.387666938110565
2013,20.19182777404785,11.0661380449321,-1.602724381039467,2.1523456212364316,11.386866484873158
2014,20.20077395439148,10.018435181324147,-1.8208917005333596,1.7903934989296555,10.338771636344147
2015,20.202892780303955,9.014350200102484,-1.9151612731573107,1.35593058758434,9.314767844162088
2016,20.21286106109619,8.108038876438757,-1.9044429073753906,0.8767440556758573,8.374716553320335
2017,20.223392963409424,7.3346069636738545,-1.810015281287072,0.37943559363071994,7.564164593646783
2018,20.233486890792847,6.710734126958532,-1.6515480109982223,-0.11394421313496345,6.911913384806339
2019,20.243035793304443,6.236505400450419,-1.444014811417085,-0.5874868537677779,6.428399426668284
2020,20.253413915634155,5.8981276994895815,-1.1961305256011674,-1.031332319045441,6.105922120865024
2021,20.26379108428955,5.671273893601349,-0.9103869775031989,-1.4404067511533996,5.921733161315182
2022,20.273252964019772,5.524801660045935,-0.5842218971707576,-1.8126055365199514,5.843824726923533
2023,20.30165791511536,5.424526666709189,-0.2116755569439289,-2.146916440324162,5.837768948920538
2024,20.302895069122314,5.336638088860952,0.21492348603642425,-2.4418390368829175,5.872688998949018
2025,20.30504608154297,5.23030885205537,0.7033954121361197,-2.694348647475214,5.925403819812995
2026,20.31336879730225,5.079145578674834,1.2602206586036613,-2.8995284155911656,5.982736911361235
2027,20.32316994667053,4.86135041330751,1.8890473175162332,-3.0508670797689432,6.042269238224845
2028,20.33306884765625,4.5587519589024685,2.5891921288469195,-3.141135274581478,6.111699118583963
2029,20.346020936965942,4.155108943373367,3.354237268524892,-3.1636940120308013,6.206834763921319
2030,20.35330104827881,3.6342466933616056,4.170909451586248,-3.114014561139537,6.348332172195334
2031,20.363626956939697,2.978641479372043,5.018448589957207,-2.9911138377984274,6.557735379179949
2032,20.37368106842041,2.1690128871104917,5.868607737870673,-2.7985848987132504,6.853995267050656
2033,20.39084482192993,1.1853087515252392,6.686327587979582,-2.5449443158355654,7.251804949178027
2034,20.39317297935486,0.009177492080215954,7.431101221574016,-2.243118534636466,7.762276106405219
2035,20.403285026550293,-1.3723359260312995,8.059123889706441,-1.9090469697667176,8.39507260816062
2036,20.413346767425537,-2.9624645020334133,8.52641040290939,-1.5595726576906528,9.160138490179383
2037,20.424138069152832,-4.7505415382155185,8.793009740132797,-1.209988334680214,10.067210982513654
2038,20.43385887145996,-6.708724320102985,8.828176895114266,-0.8717732309119113,11.122215510441489
2039,20.4437108039856,-8.79018439886747,8.61592277055458,-0.551135783505389,12.320926004408683
2040,20.453685760498047,-10.92908176224716,8.159920319612164,-0.24887627419072672,13.641519973527803
2041,20.46392297744751,-13.04243159287806,7.4865345268355,0.03825079246647933,15.038440218304826
2042,20.47370386123657,-15.03385044072419,6.644925936852923,0.3149657659837983,16.439917980758462
2043,20.49131774902344,-16.79911726099073,5.703701454770523,0.5843706077563019,17.750606751344517
2044,20.49329805374145,-18.233452937322713,4.744234807147634,0.8451923537017536,18.85950476650088
2045,20.50408697128296,-19.240348043109204,3.851364366399226,1.0901938900331514,19.652290528602805
2046,20.513540983200077,-19.741571233641096,3.102673720906778,1.3063791037094388,20.026553506630638
2047,20.523611068725582,-19.68758466073521,2.5580208895495185,1.4771019281381284,19.907945417624028
2048,20.53449487686157,-19.066998382484517,2.2512619227328794,1.585346664419579,19.26478475376251
2049,20.544193983078003,-17.91319946116843,2.1858156859260944,1.6168436766486454,18.11835226015777
2050,20.5538649559021,-16.306335545824048,2.3347081326671173,1.562066284801123,16.54652507555164
2051,20.564384937286377,-14.369472417649185,2.644633243590839,1.4174186890499858,14.679403880769636
2052,20.573680877685547,-12.258451242056925,3.0431487331995513,1.1868775623445011,12.68617591767739
2053,20.5900239944458,-10.145443888030732,3.44833981559327,0.8846677969024731,10.7519168653716
2054,20.593633890151978,-8.197122614967471,3.780334634127295,0.5373048212846279,9.042811818332238
2055,20.60369300842285,-6.550481531657748,3.973330008173317,0.181764643181376,7.6634977677266045
2056,20.614999771118164,-5.291808178807243,3.9857374848661427,-0.14205639789032845,6.626425666959518
2057,20.62384605407715,-4.444912674062191,3.805943625244898,-0.40256799169468654,5.865536339203609
2058,20.633813858032227,-3.9722717322259937,3.4523932730488913,-0.5857645641256536,5.295383097663497
2059,20.64466381072998,-3.7883094750758786,2.9682092003538347,-0.6969662156340706,4.862850649747544
2060,20.654140949249268,-3.7801458514257087,2.4115168569646874,-0.7545298520205874,4.546892511052581
2061,20.664501905441284,-3.829919972401832,1.8433705845398372,-0.7804267171701826,4.321500661555222
2062,20.674108028411865,-3.834238125364185,1.3160642307143533,-0.7925126114513574,4.130554841746018
2063,20.69149875640869,-3.718455606770523,0.8649777836712069,-0.7999389720729165,3.9006411043325895
2064,20.693835973739624,-3.444754800266333,0.5058993954678135,-0.8015529413343151,3.57278000303046
2065,20.70428895950317,-3.013498397901713,0.23733149893767522,-0.7872978452577369,3.1236735955748753
2066,20.713932991027832,-2.4580402691665104,0.045566760037613854,-0.7424501689916402,2.568125882409235
2067,20.72404289245605,-1.834259543121912,-0.08946787592045916,-0.6537985963288148,1.9493499370090155
2068,20.73411703109741,-1.2070912178446365,-0.18843613422699845,-0.5159795988190168,1.3262022211101505
2069,20.745110988616943,-0.636930064821885,-0.26742289022081056,-0.33545704354344197,0.7679364151744393
2070,20.754275798797607,-0.1688217020063935,-0.3347106300876372,-0.13004002369524414,0.39679009655567044
2071,20.76460886001587,0.17340905513231816,-0.3910236562274417,0.07612369572257165,0.4344709624150071
2072,20.77438187599182,0.38748887188388437,-0.43303032556493143,0.2598321976207376,0.6365340993325793
2073,20.792315006256104,0.488581480000349,-0.4576754296294592,0.40529879812567426,0.782589149712643
2074,20.794164896011356,0.5028377693113897,-0.46475479725828495,0.5073799093038032,0.8522189954382496
2075,20.80447483062744,0.4607194674129648,-0.45705082290317145,0.5705775469326001,0.8641276638514565
2076,20.814433097839355,0.3914935798746156,-0.4389865069978892,0.6047570503066297,0.843627563741741
2077,20.824909925460812,0.31940683516800256,-0.4150081981987067,0.6201692593398334,0.8117034194546023
2078,20.83430790901184,0.2614584136826909,-0.3885357642019361,0.6243654557375659,0.7804823921574592
2079,20.844253063201904,0.2265985210585223,-0.3617934668397728,0.6218250512513835,0.7542597674260753
2080,20.85503196716309,0.21633911577687368,-0.3361502070488869,0.615203676125404,0.7336723640919972
2081,20.864655017852783,0.22671377565334283,-0.3122782752065015,0.6065140831236683,0.718871469919544
2082,20.87434482574463,0.25113481967591716,-0.2898550734061147,0.5972966173458614,0.709822449860335
2083,20.89213800430298,0.283278919221486,-0.26715917487831975,0.5880197552520583,0.7052575439962684
2084,20.894383907318115,0.31906747342544844,-0.24110680010434798,0.577634066578748,0.7025650550140954
2085,20.90516805648804,0.35719764333434423,-0.2079857545341255,0.563973997085581,0.6992244989139225
2086,20.914433002471924,0.39831651851450667,-0.16467699956133436,0.5449113447310998,0.6947682611653302
2087,20.92476797103882,0.44347125996243386,-0.10982110790681447,0.5195419165341638,0.6918462525666673
2088,20.934557914733887,0.49264368278879084,-0.04438267773080341,0.48867016136771635,0.6953172994291232
2089,20.94551086425781,0.5439463377251121,0.028626145905822586,0.45434223432780396,0.7093123010691161
2090,20.954487800598145,0.5936191595339214,0.10508620020089002,0.41874731429252887,0.7340137119057291
2091,20.965063095092773,0.6366059321665024,0.18091578725043164,0.38307883534626136,0.7646875368647463
2092,20.97532796859741,0.667365162071553,0.25296286199093826,0.34684571051739344,0.793516487539958
2093,20.992767810821533,0.6806485085261336,0.3194455157757002,0.30784715216292396,0.8124639676951069
2094,20.994558811187744,0.6721462829745292,0.3800175890706242,0.26276125688333074,0.8156209118447328
2095,21.00485587120056,0.6390453939399835,0.435639950296166,0.20811186205786392,0.8009193023889148
2096,21.01467704772949,0.580585930461806,0.4884113061750227,0.14130925371559167,0.7717473238278513
2097,21.02564477920532,0.49862202780981685,0.5414706378410508,0.06150883101976395,0.7386458654555551
2098,21.03537487983704,0.3980804859412032,0.5990405553210474,-0.02987000303182481,0.71986795823099
2099,21.045244932174683,0.2871823740828063,0.6666192829427499,-0.12901934045392852,0.7372251858056055
2100,21.05517888069153,0.17737463383247792,0.7512650886486545,-0.22996415468948136,0.8054467745242537
2101,21.06573987007141,0.08303718045988573,0.8618708900742729,-0.32500183331931065,0.9248474448021468
2102,21.075457096099854,0.021090663901257002,1.0092981231889893,-0.40521342329592236,1.087807628211814
2103,21.09292697906494,0.010586312856089929,1.2062004195467257,-0.460979605253922,1.2913302128404827
2104,21.094960927963257,0.0722346021924628,1.4663512552111087,-0.4825912290615277,1.5454119631283476
2105,21.105764865875244,0.22769253016698052,1.803431758671595,-0.46110247308647706,1.8753201025866568
2106,21.11491680145264,0.4983804970553299,2.229492082905386,-0.38941010255925773,2.317468078649224
2107,21.1251540184021,0.9037047175077562,2.753362411580736,-0.2633309777260984,2.9098161436389143
2108,21.135072946548465,1.4587572495947227,3.3791108826995413,-0.08235082413925898,3.681459592207967
2109,21.145047903060917,2.171740506477649,4.104552900449154,0.15032766335471245,4.6461177069066
2110,21.155824899673465,3.041485087320501,4.919919104881204,0.42869175122572156,5.800001047632409
2111,21.16738605499268,4.055460595269722,5.806900436152955,0.7455842483421394,7.121990535415976
2112,21.1753408908844,5.188528723726206,6.738326946367434,1.0944251309243258,8.574593093568469
2113,21.193068027496334,6.402429884702635,7.678746686675687,1.4701914069860367,10.105232401080237
2114,21.19507598876953,7.6459036352693115,8.586142879376432,1.869254989319533,11.64799580013605
2115,21.205342769622803,8.855582001135094,9.414887253733495,2.288289210723604,13.12622192754851
2116,21.21520185470581,9.958213111966629,10.119743353283777,2.72286251894082,14.456458564141082
2117,21.22575807571411,10.875008844537914,10.660415460064076,3.1662253595378242,15.554268165919328
2118,21.23576593399048,11.52865029725031,11.005956316748932,3.608396819139664,16.342012719578108
2119,21.245707988739014,11.85275646012747,11.13834235401835,4.035529208369815,16.75816225276562
2120,21.25584888458252,11.802759771572774,11.054577872074239,4.429676378292393,16.76695747509403
2121,21.267991065979004,11.36636377371424,10.766702321946775,4.769177331295528,16.36646439348342
2122,21.275325775146484,10.57115048922642,10.299191876495494,5.029974163356711,15.592408924177779
2123,21.29162192344665,9.486806039350483,9.683749699350729,5.188359421649319,14.515287477557909
2124,21.295351028442383,8.220377994687032,8.952386128192948,5.225371301481533,13.229676375563505
2125,21.30564594268799,6.904862574211867,8.130604488389116,5.132032932503865,11.837297771690512
2126,21.316598892211918,5.683224171502995,7.2329133053894665,4.913558588298474,10.428668652684175
2127,21.32605504989624,4.690682132697566,6.262482289346187,4.590508349517681,9.071601303043161
2128,21.33594393730164,4.037776028596197,5.21555883742283,4.195905370191643,7.8173723922638185
2129,21.347380876541138,3.79618117574398,4.089526478394623,3.769139636161115,6.733619526929362
2130,21.356008052825928,3.9891478208497624,2.8918004814287204,3.3491399374989252,5.957562310369242
2131,21.368731021881104,4.588491498010912,1.6460358203848562,2.9692799501881773,5.707916570159202
2132,21.37595796585083,5.519381330955008,0.39300603117679694,2.6545211349057207,6.137141555536842
2133,21.39303398132324,6.672477544720242,-0.8143873808178571,2.4195689734082095,7.1441932650167645
2134,21.395732879638672,7.921011584367516,-1.9202915528737374,2.267127328203142,8.459894236337009
2135,21.40639090538025,9.139099103498923,-2.876108331498108,2.186715681423353,9.827352493396706
2136,21.41710090637207,10.217408109375976,-3.6483001237953845,2.155178114100919,11.061207663285549
2137,21.426899909973145,11.073421889703637,-4.2214894439345505,2.139562156901152,12.042398917817911
2138,21.435760974884037,11.655562226380722,-4.596650399761614,2.1020932514506043,12.704334762137524
2139,21.44579792022705,11.942338094432385,-4.786133993430353,2.0061230368975025,13.021176882446968
2140,21.45779275894165,11.938522170568838,-4.808030655254383,1.821550791263958,12.998596758272946
2141,21.46869397163391,11.670071910367446,-4.68182444869481,1.5284830280796446,12.66674065924898
2142,21.4759259223938,11.178718092922034,-4.426049540034222,1.1186672396736383,12.074976982378832
2143,21.493587970733643,10.516452684059145,-4.05751967797403,0.5950522916608293,11.287751335984154
2144,21.49586296081543,9.739845233909932,-3.591208810321644,-0.02975080618593664,10.380859839643271
2145,21.506701946258545,8.904202975846427,-3.040048551645111,-0.7354149705079605,9.437561179154237
2146,21.51754379272461,8.057882307211825,-2.41438771652033,-1.4959088034142574,8.543797660917182
2147,21.52613878250122,7.237310545870288,-1.721242740360414,-2.281510039586344,7.781171413697426
2148,21.53591108322144,6.463324162877207,-0.9636688199609834,-3.0607450199595396,7.216049951753692
2149,21.5467689037323,5.7392844536633465,-0.14070289970500194,-3.801949644885477,6.885782776728582
2150,21.55660891532898,5.0511971969001,0.7516252573599267,-4.474087086262687,6.78947633510386
2151,21.569479942321777,4.36978937845858,1.7179112705396322,-5.046882104315177,6.8932791413371115
2152,21.576368808746334,3.6541965434209827,2.7598380218981027,-5.490928664770251,7.149836074111064
2153,21.59432983398437,2.8566765476551823,3.8723090074130426,-5.778571775342774,7.5197918661092915
2154,21.596040964126587,1.927710124205803,5.040365413294997,-5.885969376794359,7.985360688601797
2155,21.60634183883667,0.8209861263885843,6.237734671480315,-5.796184259489485,8.554478594365868
2156,21.618083000183105,-0.502009681895954,7.427270538276175,-5.50266605560174,9.257196934760227
2157,21.627331972122192,-2.067885352034435,8.563054370161069,-5.012144272489966,10.135267149105994
2158,21.636990070343018,-3.887644159627035,9.593733477739274,-4.345960307285974,11.226792513727272
2159,21.646602869033813,-5.953203858768976,10.466692210198529,-3.5393158169356718,12.550658885457107
2160,21.656888961791992,-8.233893235973692,11.132741705247506,-2.6385157751807653,14.095981739242152
2161,21.66936492919922,-10.672865258475353,11.551104835830257,-1.6966233050372421,15.818236513376162
2162,21.676739931106567,-13.183888260993642,11.694520463800616,-0.7680026440531834,17.639913452675724
2163,21.69441699981689,-15.649717411929123,11.55418902042337,0.0976481341469363,19.453083923918385
2164,21.696448802948,-17.923844612709896,11.143904217540333,0.8608204078829303,21.123253032734105
2165,21.70723009109497,-19.837513911277902,10.502133961988378,1.4960513752413784,22.495776173607695
2166,21.718493938446045,-21.21333519079095,9.690425675919139,1.9931526099762196,23.40689208382902
2167,21.726547956466675,-21.885714730700556,8.786866311992378,2.355647030766274,23.701109716466604
2168,21.737937927246094,-21.72673846645799,7.874714553412279,2.5971028370987352,23.255262562139666
2169,21.74703693389893,-20.674090590716926,7.0283782293143275,2.736575376754617,22.006929978534703
2170,21.757187843322757,-18.755383092045545,6.300553618695228,2.794455313134745,19.98175045706828
2171,21.7686128616333,-16.102045683009642,5.714343776856953,2.7895371634243356,17.31216674954232
2172,21.77693796157837,-12.94697909221464,5.262320959393599,2.7372826308050864,14.24110268535493
2173,21.793758869171143,-9.603376966968785,4.912138909755537,2.649035393682403,11.107265476048683
2174,21.79655694961548,-6.425717423251703,4.616849954342576,2.532675749912079,8.307803220983647
2175,21.807400941848755,-3.7566282108270506,4.327405061693036,2.395128530146226,6.210904182022822
2176,21.81672596931457,-1.8665166616780544,4.004118735610532,2.244885177920942,4.955437494231787
2177,21.827292919158936,-0.8990113962607233,3.6236169778564875,2.0912260554242765,4.279257868801764
2178,21.836641788482662,-0.8410642747977609,3.179565824844257,1.9399694076487357,3.8184433021156163
2179,21.847824096679688,-1.5317909978540452,2.6791052331456395,1.7901423626954571,3.5677161027878768
2180,21.856709957122803,-2.706680117821201,2.1386850220080182,1.6352923681475173,3.8176264894423007
2181,21.867602825164795,-4.058172676011378,1.5807145438600516,1.4681428237932745,4.595962063436962
2182,21.87735605239868,-5.292759966717157,1.0299001983397431,1.2847506250998209,5.542976335193794
2183,21.894618034362797,-6.17433900995733,0.5092173499544771,1.086220583672589,6.289804422696268
2184,21.89678907394409,-6.5521139766394105,0.03758430641245464,0.8784442176887065,6.610845209695409
2185,21.907176971435547,-6.3739903602195405,-0.36968907322775724,0.6708323966702577,6.419847290041873
2186,21.91687488555908,-5.685416960397812,-0.699686484819828,0.4746613235133622,5.747941419556925
2187,21.92761707305908,-4.613157146965123,-0.9429570034608484,0.30118267957320816,4.718166781647947
2188,21.936986923217773,-3.3356407655327462,-1.0973571363866574,0.1591967515613814,3.5151153049608923
2189,21.94796085357666,-2.0452018511800083,-1.1713964696370975,0.052446669718986205,2.3574925141584226
2190,21.957465887069706,-0.9102081517577585,-1.1829023645369419,-0.021250591716181575,1.4927117843715345
2191,21.967623949050903,-0.045506006736018755,-1.1524664002290883,-0.0675262094258984,1.1553395125526877
2192,21.977338790893555,0.502433854044698,-1.0961435048633505,-0.09118230719235113,1.2092495913124135
2193,21.995800018310547,0.7533547626625121,-1.022678268513858,-0.09376955203839916,1.2736588900511294
2194,21.998383045196533,0.7764561452929357,-0.9360638491262911,-0.07448915087946184,1.218461451504739
2195,22.00749897956848,0.6650069258672409,-0.8397215585994348,-0.03255470906934218,1.0716465445801855
2196,22.017240047454838,0.509749034878677,-0.7385967030950696,0.031091071821670268,0.8979620388021252
2197,22.027354955673218,0.3780320676194238,-0.6386275645155272,0.11301018239861059,0.7506828302508441
2198,22.037221908569336,0.3034535570248016,-0.5453034228223818,0.20695203731430142,0.6574716951788493
2199,22.048256874084476,0.287193131198231,-0.4627738423164989,0.3040114269883054,0.6237487246313902
2200,22.057775020599365,0.3083615918443858,-0.3935967536341591,0.3937604542592711,0.6364374055118225
2201,22.068070888519287,0.33822799784147867,-0.3385727049203608,0.46643794073297545,0.6682768944054281
