,time,New_AccelerationX,New_AccelerationY,New_AccelerationZ,new_NetAcceleration
998,10.005031824111938,-34.385980865468824,-3.026157560342151,-25.556058634982882,42.94956859637926
999,10.015240907669067,-25.067257285446207,-2.383744386652107,-19.560194665639433,31.884962607369648
1000,10.025192022323608,-16.20889783564323,-1.7774660142094538,-13.865875424997121,21.404444766905975
1001,10.036328077316284,-8.204911169025708,-1.2323258079377637,-8.737929488592076,12.049506460271278
1002,10.046894788742064,-1.3825443461772222,-0.7596938885583994,-4.379506466594045,4.654958707056234
1003,10.054406881332396,4.024870385258095,-0.35982592529598895,-0.9150469776682626,4.143231502822716
1004,10.065639972686768,7.897480228597903,-0.027929847395017596,1.6148569333610738,8.060938962223608
1005,10.074561834335327,10.237659051510962,0.24052451852440154,3.2477873678756075,10.74316702308626
1006,10.08445692062378,11.165637048377327,0.44726576986621636,4.085650492405157,11.898068637853829
1007,10.09493899345398,10.901348380638929,0.5912440646966982,4.2754622217097085,11.724698003333176
1008,10.104875802993774,9.734477898833616,0.6700486357684574,3.9873780217769905,10.540787856025064
1009,10.115009069442747,7.987231600486501,0.6818881838058496,3.3927488051303585,8.704687506725193
1010,10.125137090682983,5.975482397466064,0.6280000079827143,2.645236615718725,6.564910558841767
1011,10.1367609500885,3.973703070818066,0.51516467032938,1.8674943066360492,4.4207743346502735
1012,10.147395849227903,2.1885550415671196,0.3572035835024657,1.1447688843684958,2.4955687465293654
1013,10.154608964920044,0.7453045942464068,0.17428619447782506,0.5257619242404586,0.9285904461986421
1014,10.164719820022585,-0.3108025590265923,-0.010211758715827555,0.029795402898846735,0.3123944249621835
1015,10.174628973007202,-0.9997292347547132,-0.17450421740103253,-0.34253114032389137,1.0710918946596397
1016,10.185391902923584,-1.3834084521239849,-0.3032045166816415,-0.5990880458449028,1.5377445857548946
1017,10.19518780708313,-1.5406822617518665,-0.3901226625837916,-0.7494179787499784,1.7571354046891257
1018,10.205071926116943,-1.5465452569090394,-0.4378068340233953,-0.802461246017967,1.796502465054291
1019,10.215260982513428,-1.459744822326518,-0.45434602121687384,-0.767987521840546,1.7108740710547532
1020,10.226826906204224,-1.3196336248966547,-0.4492452330846424,-0.6595972569577253,1.5421811582279543
1021,10.237082958221436,-1.1500391138145478,-0.43016724420250957,-0.49675889946401697,1.3245388727722691
1022,10.247713804244995,-0.9661619247101081,-0.4015053590813323,-0.3041872765726703,1.0895895178273645
1023,10.254826784133911,-0.7806617257068819,-0.3648065200010291,-0.10847284014711919,0.8684946079674246
1024,10.2655508518219,-0.6066381464808771,-0.3203289254465167,0.06674193973689002,0.6892568082821647
1025,10.274847984313965,-0.45722682392281233,-0.2687413327507783,0.20516939368053969,0.5686587311792963
1026,10.28588891029358,-0.3430935520432563,-0.21220904753606543,0.30027232163613105,0.5029009171303775
1027,10.295387983322144,-0.2696825844804585,-0.1545701095190614,0.35493734677419686,0.4718062475888813
1028,10.305230855941772,-0.23571100481868412,-0.1006838338787757,0.3787881196654896,0.4573591059516361
1029,10.315491914749146,-0.2335582796567501,-0.05527624953188589,0.384281824512169,0.4530755504426756
1030,10.327321767807009,-0.2513518462511337,-0.021743088134591308,0.3829356214453314,0.4585740972484211
1031,10.337646961212158,-0.27598949080849666,-0.001360610148897736,0.3827042303498803,0.47184168767119844
1032,10.34810185432434,-0.29617609861661104,0.006843032857316635,0.3869431433813045,0.48733161676649667
1033,10.35501194000244,-0.30473639001347946,0.005609516548552217,0.39480723100828335,0.4987669633514072
1034,10.36514687538147,-0.299832227029095,-0.0013348313478677436,0.40252734167171117,0.5019256986180808
1035,10.376582860946655,-0.2849981730606394,-0.010010267600640079,0.4049616358689104,0.49529596266370124
1036,10.386200904846191,-0.26788432835005294,-0.016666899028183177,0.3971731931516244,0.4793603490663701
1037,10.396009922027588,-0.25760036809487136,-0.018121786580192173,0.3760474084763007,0.4561775994206785
1038,10.405463933944702,-0.2612869641312973,-0.01213094607781803,0.3416629433202486,0.4302924636987594
1039,10.415780782699583,-0.281548807135885,0.0023187152648930193,0.2977664412402638,0.409804783731243
1040,10.427359819412231,-0.3162152101245518,0.025112481665395103,0.2509719367278417,0.4044868463552715
1041,10.437177896499634,-0.36040647799490727,0.05555839341798541,0.2089885231175923,0.42030437453677977
1042,10.44822907447815,-0.409503067841483,0.09305608274057171,0.17863697408065551,0.45635881235635095
1043,10.455250978469849,-0.461351132973638,0.13747365042025697,0.1643799344315613,0.5086891342457147
1044,10.46592402458191,-0.5167325314664316,0.18906499912298427,0.1677289688738647,0.5752313360453954
1045,10.475241899490356,-0.5781176814669092,0.24807447641765565,0.18748607587933563,0.6564388990021849
1046,10.48587679862976,-0.6474606003199934,0.3142919887413221,0.22045615428306647,0.7527188048102564
1047,10.495389938354492,-0.7240779723500942,0.38676015025308363,0.2621386046752794,0.8617360221828457
1048,10.506288766860962,-0.8035061792427669,0.46377417050747144,0.3070693839785012,0.9772411513480891
1049,10.51559591293335,-0.8777717033806007,0.5432531280280383,0.3488144313589004,1.0896231604973172
1050,10.527493000030518,-0.9369376023333655,0.6234297547598637,0.379865868332278,1.1877772550903538
1051,10.53795289993286,-0.971346051626309,0.7036844072375115,0.3917485779713922,1.261804994974198
1052,10.548930883407593,-0.9738385649106172,0.7853464461828926,0.3755433738363795,1.306201905017628
1053,10.555443048477173,-0.9414111515762343,0.8723462240782495,0.3228477034054917,1.3234324805481659
1054,10.565673112869264,-0.8761092670924259,0.9715515755671424,0.22699414097207554,1.327782456544699
1055,10.576526880264282,-0.785266210385925,1.0924732266356756,0.08423563534132632,1.3480491142206181
1056,10.586890935897827,-0.6812410272672318,1.2461031813557673,-0.10532978496267577,1.4240634955708122
1057,10.595923900604248,-0.5806295493087343,1.4431192778157178,-0.3371992503202365,1.5916743567546574
1058,10.605950117111206,-0.5027976476111423,1.6920909203726184,-0.6024172843160731,1.8651765979910604
1059,10.616080045700071,-0.46775866639504105,1.9982181987918042,-0.8883040680639385,2.2362375225609132
1060,10.628093004226685,-0.4937398887156052,2.3627828626950023,-1.1800470097835514,2.6868257999455767
1061,10.636905908584597,-0.5949463581217591,2.7832585385617037,-1.4627599254426655,3.200024353188583
1062,10.649161100387571,-0.7799490074725197,3.253871572445676,-1.7232839809936273,3.763735955586777
1063,10.655658960342407,-1.0509148724184192,3.7662760532770725,-1.951112180691539,4.369908021938384
1064,10.666348934173584,-1.4036765382378653,4.310075144487957,-2.1381810799248457,5.011873293059283
1065,10.676922082901,-1.828482562117303,4.873169857470613,-2.2776616444825777,5.681450123557743
1066,10.68587589263916,-2.311230764469594,5.4420388099666575,-2.36230855822828,6.366951843707678
1067,10.69629192352295,-2.8350186874206793,6.001904226862711,-2.3833146050881706,7.0526855745370876
1068,10.706141948699951,-3.381829192494229,6.536640543753919,-2.3305482451923036,7.7198376542918705
1069,10.716273069381714,-3.9340813264581684,7.0285412828077085,-2.194335208799569,8.34820312737397
1070,10.728532075881958,-4.4757545058232315,7.4583913425993416,-1.9681307020100618,8.918156663568565
1071,10.737567901611328,-4.992939924778883,7.806226796199051,-1.651176886977599,9.412386041713127
1072,10.74964189529419,-5.473896725453556,8.05278327792924,-1.2504890836646478,9.817055914610675
1073,10.755873918533323,-5.90883583599988,8.181345007984685,-0.7818102964286636,10.12225144995293
1074,10.76609992980957,-6.289712690131216,8.179647770203573,-0.2693560449802037,10.321805852076531
1075,10.77728796005249,-6.610364586139448,8.041555005154569,0.25568967282741945,10.41292005497995
1076,10.787019968032835,-6.867298334731602,7.768299102443393,0.7578646326258534,10.396182768911645
1077,10.796515941619871,-7.06113134918007,7.369004238501518,1.201150498829989,10.27640802606954
1078,10.806946992874146,-7.198207714456738,6.859987924765927,1.5533787997357806,10.064125114676756
1079,10.816447973251345,-7.291629639835667,6.26244757345041,1.7907057762611511,9.777153961755944
1080,10.82891583442688,-7.361059930670932,5.598926749451941,1.9013877808279482,9.441846193501537
1081,10.837302923202516,-7.4309893727647145,4.889817513457845,1.8881121642173226,9.093672850819223
1082,10.84981083869934,-7.527482637584276,4.151183037574094,1.7682942383474898,8.776228118272025
1083,10.856045961380005,-7.673693335919764,3.394424243111763,1.5720890941072168,8.536928573894425
1084,10.866289854049684,-7.8848234462205555,2.627525944964794,1.3383748410355658,8.41816966950949
1085,10.877708911895752,-8.163700935219104,1.8572249943283852,1.1094066186422573,8.445476936487518
1086,10.886348962783812,-8.49841487798134,1.0913607772107872,0.9250300702991531,8.617993061919135
1087,10.89677095413208,-8.86306496915807,0.34075767211981917,0.8173400695431979,8.907192668170277
1088,10.906805992126465,-9.221672554488288,-0.3797929274274957,0.8065728252738169,9.264666593698701
1089,10.916745901107788,-9.534198897122733,-1.051600111231964,0.8988167423053128,9.634037727769586
1090,10.929183959960938,-9.763029258270052,-1.6530949549838978,1.0858473724018252,9.961351702664768
1091,10.938607931137083,-9.878410566990055,-2.1615709734642667,1.3471194675823361,10.201476131584261
1092,10.95059609413147,-9.861923304238895,-2.5553645989583162,1.6536959592878309,10.320955857771338
1093,10.956347942352297,-9.707733103898297,-2.816192665866558,1.9735799835689474,10.298836880898127
1094,10.966925859451294,-9.421851372151547,-2.9313438139217403,2.2774599332678385,10.126741014856242
1095,10.977854013442991,-9.019882871286153,-2.8953541171433206,2.5434493537447818,9.808694973871136
1096,10.987080812454224,-8.523854677110087,-2.710730176713928,2.7595341862608755,9.36051203581201
1097,10.997018098831177,-7.9588263909752675,-2.3873677380140124,2.9233752779925064,8.808437162980292
1098,11.006829023361206,-7.350028311205436,-1.9406577807669536,3.0402089743489413,8.18730354911094
1099,11.01730489730835,-6.721082181529526,-1.3887469849274308,3.119987809610246,7.538958005662007
1100,11.03023600578308,-6.0933783634129535,-0.7497363759731228,3.1745733913224115,6.911532444404693
1101,11.038953065872192,-5.48613273626072,-0.039569232727259616,3.215346323165828,6.3590620457695
1102,11.050805807113647,-4.916351133714966,0.7289677015660204,3.2514234948622485,5.939162998508217
1103,11.056562900543211,-4.398036692878369,1.5460923447148327,3.2886535215221984,5.705117901928992
1104,11.067670106887816,-3.9403574309132736,2.4039316195723046,3.329449294852011,5.691268445779335
1105,11.0775249004364,-3.544916823029699,3.294771754244656,3.373293589072352,5.899242818603419
1106,11.087619066238403,-3.2026163672554295,4.208960905513577,3.417573020234182,6.29697616706516
1107,11.097123861312866,-2.8908567966891763,5.1327876671458155,3.4583650558012144,6.831021235083019
1108,11.107064008712769,-2.5719676818447725,6.046686315242975,3.490933860120328,7.44070241087058
1109,11.117151021957396,-2.193701928944795,6.924134851344011,3.50992552846849,8.066941725836854
1110,11.130810022354126,-1.6923400425261788,7.73157550244179,3.509462181562125,8.65780569043394
1111,11.139583826065063,-0.9984823025215672,8.429580668166754,3.4833912680131607,9.17544614041463
1112,11.151230096817017,-0.045092867589588144,8.975334721102696,3.4258309888161467,9.607027879967461
1113,11.15679383277893,1.2230778410464556,9.32633383941279,3.3319493546493244,9.978893164644214
1114,11.167670011520386,2.839853428426967,9.445030161250276,3.198761210408043,10.36848279754984
1115,11.178970098495483,4.8090638101360295,9.303957780750206,3.025738695302962,10.9016429848072
1116,11.187434911727903,7.098320982843301,8.890671925342055,2.815158347577163,11.719868795403482
1117,11.19765591621399,9.636214323184808,8.211663492455484,2.5721495679653907,12.919132989317152
1118,11.20685887336731,12.313574095112958,7.294428702144491,2.304267262357952,14.496290722211695
1119,11.217840909957886,14.98886015306589,6.18716780268728,2.020273314449828,16.341006039159726
1120,11.227290868759155,17.49725339314198,4.956029471877896,1.7279744782142916,18.267512152104914
1121,11.238095045089722,19.662905262881832,3.680199868446797,1.4315059842715354,20.055496100365783
1122,11.25174593925476,21.31387006533079,2.4453568336259734,1.129085497617801,21.48338104830094
1123,11.25749397277832,22.29903233456339,1.3360510719579701,0.812532451310331,22.35379351495437
1124,11.26784896850586,22.50563836964968,0.427492133077855,0.4695014324853434,22.51459392359536
1125,11.2792489528656,21.87517650776305,-0.2227973194663247,0.08854769038782204,21.876490271175193
1126,11.28764510154724,20.414927014245652,-0.5827347635964127,-0.33391911868409374,20.425971868665233
1127,11.297693967819214,18.203007221307733,-0.6515911559298045,-0.7868731161226777,18.231654127762077
1128,11.307111024856567,15.38610255566789,-0.46234031519865276,-1.2409121645350414,15.442984602099393
1129,11.31734299659729,12.170388562331844,-0.0788123454854673,-1.649732803681412,12.28194558966458
1130,11.32721781730652,8.806347192510271,0.41295880044634276,-1.9571884919547753,9.03066291248543
1131,11.338435888290403,5.567285588100475,0.9182111069915907,-2.1086707805714706,6.023642827833491
1132,11.351708889007568,2.7206643231596526,1.349432371034047,-2.0655105101819236,3.672780384256637
1133,11.35776400566101,0.4926988429535269,1.6416111700694986,-1.8211206312757968,2.500823811707464
1134,11.368074893951416,-0.9685331420116234,1.7628918221711585,-1.4142537057585558,2.458852896800592
1135,11.377890825271606,-1.6202821189317904,1.717333759677484,-0.9294586887017383,2.5374086862508474
1136,11.388216972351074,-1.5310949719186084,1.5390791932060486,-0.4768765625727602,2.2227073203472916
1137,11.397610902786257,-0.8628377469085284,1.2803290158694276,-0.15689904538258267,1.5518855231006339
1138,11.407756090164185,0.16327011786527829,0.9969608039330177,-0.02775037320102816,1.0106226096715367
1139,11.417979955673218,1.3057676463799321,0.735357653204203,-0.09178569016702423,1.501400891626889
1140,11.42750597000122,2.340599557622541,0.5231767450268241,-0.3026978520548884,2.417384161716615
1141,11.439486980438232,3.093909585814555,0.36587828324819915,-0.5853958588522521,3.16998923577182
1142,11.452422857284546,3.465525431090281,0.24974007937740633,-0.858778646904208,3.579069346235071
1143,11.45746397972107,3.4375778474719274,0.15044041995121388,-1.054240506634147,3.598749341537008
1144,11.467611074447632,3.0656435465290355,0.044166825471716076,-1.126371537885058,3.2663180959920184
1145,11.47752594947815,2.4555805450669728,-0.08312049391584152,-1.0564521061823178,2.674486096893622
1146,11.487648963928224,1.7336422656925565,-0.2317322292941931,-0.851598659366182,1.9453625903989096
1147,11.497561931610107,1.0180660161718118,-0.3902092998787409,-0.5415175856496238,1.2173590294418482
1148,11.50757384300232,0.39818620905956625,-0.5408725035780871,-0.17278404200585512,0.6935053333493101
1149,11.518503904342651,-0.07567330969789188,-0.6655376047529888,0.20008994455622872,0.6990727709283873
1150,11.527869939804075,-0.39119946884297224,-0.7493441459051703,0.5259830020908683,0.9955961992263204
1151,11.540096998214722,-0.5646756287120449,-0.7829579143194892,0.7676985362115558,1.2333866805500346
1152,11.552860975265505,-0.6277696126764168,-0.7641724143417624,0.9078156364690603,1.342454243264381
1153,11.557683944702148,-0.6150419592626333,-0.6986893591459035,0.9481056164099367,1.3286638747649453
1154,11.567795991897585,-0.5552530919469725,-0.5988181896646039,0.9041244998257297,1.2183309614283766
1155,11.577762842178345,-0.467780189064197,-0.47987622912305317,0.7982861318761753,1.0422860686510795
1156,11.587884902954102,-0.36366642067157284,-0.3560585988214901,0.6539100353025316,0.8286309948271029
1157,11.597755908966064,-0.24935319304482334,-0.23793358413665372,0.49125875324315005,0.6001037976715171
1158,11.60850977897644,-0.13062636066861213,-0.13213490149829005,0.325859854016033,0.3751100142022864
1159,11.618923902511597,-0.014901353620598221,-0.042278730691894216,0.16892477803396777,0.17477162825375608
1160,11.628230810165403,0.08882134617455537,0.029993069277952235,0.028878363616819065,0.09809574723787705
1161,11.639758825302124,0.17180474321683314,0.08429213044335263,-0.08743291343975032,0.21039616773849285
1162,11.652744054794312,0.2279666547958331,0.12114990897413433,-0.17473131264311817,0.31173246183423164
1163,11.65824294090271,0.2555011514841199,0.1420426512216668,-0.23028171255750302,0.3721379049683164
1164,11.668510913848875,0.25697802520387963,0.14956031322714605,-0.2549269603165348,0.3916551388996651
1165,11.677994966506958,0.23799098993242446,0.14734532518841975,-0.25329951796487354,0.37750629391459667
1166,11.688153982162476,0.20507935625379792,0.13958983289811913,-0.2328497643305024,0.3402379704835536
1167,11.698490858078005,0.16384980862179813,0.13023459737500548,-0.20196907637909273,0.2908596189783887
1168,11.708709955215454,0.11795935766281508,0.12221211429342677,-0.16794019187286938,0.23886004058148722
1169,11.71852993965149,0.06910186949121086,0.11701958718730329,-0.13550258321392683,0.19191040151673483
1170,11.728295087814333,0.01766376462876175,0.11472621118576937,-0.10645885299494705,0.15750428405253553
1171,11.740147829055786,-0.03649839200162804,0.11433975862650576,-0.08021535532838182,0.1443614084578377
1172,11.753761053085327,-0.09359599205914958,0.11433948461616174,-0.0547789847668335,0.15758954484327586
1173,11.758116006851196,-0.15388188970791472,0.11316337319720769,-0.02769509764643902,0.19300933512940543
1174,11.76825785636902,-0.21786523826284432,0.10952087773544965,0.003363019060180137,0.2438675759515159
1175,11.778225898742676,-0.28644702023689544,0.10252987302211376,0.040364318809852945,0.3069096748190102
1176,11.78923201560974,-0.36076527606453773,0.09176250383955355,0.08490224022731889,0.3818119064676265
1177,11.798646926879885,-0.4417790203725193,0.07728715101387652,0.13823577181009383,0.4693092106075449
1178,11.80846095085144,-0.5298088375127689,0.059748704662505765,0.2013041701626651,0.5699040980203232
1179,11.81867289543152,-0.6242683767833741,0.04049638177026463,0.2746809338395066,0.6832280575350921
1180,11.828451871871948,-0.7236871019343901,0.021759025989753877,0.3584370052188488,0.807882146992045
1181,11.840093851089478,-0.8259621920024645,0.006857066625099726,0.4518759803407312,0.9415160453168676
1182,11.853996992111206,-0.9286919570501306,0.00041810194058596294,0.5531360594431027,1.0809386782584283
1183,11.858393907546995,-1.0294637812006497,0.00853474169850282,0.6587348629271498,1.2222111676201663
1184,11.868366956710815,-1.1260586075179881,0.03877662568190575,0.7632177431385375,1.360886820314646
1185,11.878412008285522,-1.2166157143054142,0.0999663280618341,0.8590934915179753,1.4927118577306153
1186,11.888524770736694,-1.2998116910138704,0.20167400049649892,0.9371738770152348,1.6150782365979568
1187,11.898520946502686,-1.375049586691093,0.35346568759126024,0.98730519811155,1.7292978090490356
1188,11.90956711769104,-1.4425961021961182,0.5640138694195697,0.999361512987935,1.843344404231234
1189,11.919008016586304,-1.503608851335407,0.8402129048549282,0.9643218200627385,1.9740095936818673
1190,11.92854380607605,-1.5600642417975097,1.1864302498663313,0.8752871428907655,2.146519219304361
1191,11.940908908843994,-1.6146760793179538,1.6039753350489014,0.7283672827781706,2.389651567737123
1192,11.954447984695436,-1.6709213779793488,2.090786418159247,0.5234285084650288,2.7271493360689845
1193,11.958578824996948,-1.7332402116241847,2.641211441466438,0.26471313897728527,3.1702038665788472
1194,11.96915602684021,-1.807366422048645,3.2456469082674047,-0.03867658708976744,3.715143754295868
1195,11.979231119155884,-1.90058106912583,3.8899152802121493,-0.3724784512657516,4.3453871500943135
1196,11.989438772201538,-2.0215234318524926,4.554687604833714,-0.7172862505450854,5.034504516670491
1197,11.999571084976196,-2.1792580614133574,5.2155717206219725,-1.0491535718125025,5.749093605815935
1198,12.008925914764404,-2.3817004853927672,5.84425401218805,-1.3411160548189462,6.451852015785033
1199,12.019173860549929,-2.63395971377891,6.410536035882847,-1.5657569591531608,7.105231234541168
1200,12.02893590927124,-2.9372215036839266,6.884771144642305,-1.6985128740898625,7.675434180504161
1201,12.040761947631836,-3.2884214622503922,7.240246076308588,-1.7210405884455011,8.136145258411243
1202,12.054847955703735,-3.680525459311333,7.455279354504382,-1.6239126078126398,8.471395992878094
1203,12.0587899684906,-4.103113383936805,7.514955738914746,-1.408230688390613,8.677166177446074
1204,12.068753957748411,-4.543148891675021,7.41239017492564,-1.086166205930713,8.761477442998302
1205,12.079798936843872,-4.986027709387598,7.149372240960464,-0.6805418610583569,8.742833235470625
1206,12.088918924331663,-5.417001938377223,6.736324104726517,-0.22329978676862774,8.647070905172052
1207,12.0988929271698,-5.822901398113741,6.191613051831734,0.24749889847475706,8.50314698100146
1208,12.109848976135254,-6.193879964275743,5.540243511325074,0.6921941252439161,8.338919587312152
1209,12.118956804275513,-6.52481657111951,4.811882337602667,1.0749412102436031,8.178199161378272
1210,12.129645109176636,-6.816048232861114,4.038218374928621,1.3688549743456084,8.039868475111454
1211,12.138895988464355,-7.073310934049979,3.249854181406276,1.5596321256226136,7.938874740001189
1212,12.155053853988647,-7.306944358047929,2.473225424860812,1.64678032352075,7.887975994367725
1213,12.15953278541565,-7.530363683665911,1.7283457530889672,1.6422845155821322,7.89877551780122
1214,12.169089078903198,-7.7576633626097635,1.0281670332321748,1.5671863491414881,7.980886000234479
1215,12.17911696434021,-8.00041172474695,0.3797598472677258,1.4467558141839592,8.139036041997871
1216,12.189171075820925,-8.264266553750799,-0.21330436759844773,1.304872274398853,8.369366288864141
1217,12.200395822525024,-8.546462560104946,-0.7483502368742829,1.1584382909998585,8.65702198462959
1218,12.20917582511902,-8.83499081042351,-1.2214831598110711,1.0130958037964726,8.976382725666276
1219,12.219710111618042,-9.10953079787193,-1.626271894026674,0.8615263539690472,9.293575161866476
1220,12.229305028915403,-9.34351593854715,-1.9534173479042083,0.6848618021236399,9.57006609783787
1221,12.241185903549194,-9.506568358478017,-2.191576302721015,0.45672648444688896,9.766598575075099
1222,12.255526781082152,-9.566876811896737,-2.329265553013726,0.14886768217382626,9.847475389015177
1223,12.25923991203308,-9.493550178788528,-2.357354652004069,-0.26269251658383386,9.785378036170604
1224,12.26938796043396,-9.259241220246357,-2.2713975820384507,-0.7919060906690353,9.56660390142908
1225,12.280380010604858,-8.843291728151002,-2.073165136494714,-1.4382233367808734,9.196211646043286
1226,12.290127992630005,-8.23535458590086,-1.771115528366163,-2.1842351075335005,8.70222950601281
1227,12.299201965332031,-7.439019087849882,-1.3799006177666349,-2.996031418404045,8.137526341854247
1228,12.309913873672484,-6.474562996903647,-0.9191750717909686,-3.8263683470251557,7.576671006490376
1229,12.31985592842102,-5.3797778745274,-0.41198263141903113,-4.620162294645506,7.103354087803136
1230,12.329519033432009,-4.208014868831116,0.1170843484408422,-5.321404102356291,6.785163189012327
1231,12.341795921325684,-3.023172731773198,0.643871613561381,-5.88037898702481,6.643267347618195
1232,12.3559889793396,-1.892133930848499,1.1467876716732894,-6.2600913723226945,6.63958106856141
1233,12.359425783157349,-0.8759064524227606,1.608982201951331,-6.4410142138436655,6.696469214633045
1234,12.369580030441284,-0.02122080660711346,2.0202589199563037,-6.423649692173074,6.733882371563324
1235,12.379525899887083,0.6456018447919056,2.378166598887804,-6.2287564344371384,6.6984986999779546
1236,12.390389919281006,1.1211442712666093,2.687722104216589,-5.895315185291751,6.575374949036739
1237,12.401710987091064,1.4233049197078544,2.959579805613222,-5.4763904858220975,6.385590205569175
1238,12.4101140499115,1.5862921169833286,3.2069759581674915,-5.033204533432384,6.175286661526901
1239,12.42083477973938,1.6537096486050487,3.4421386475580533,-4.628079394437662,6.000182743227134
1240,12.42983078956604,1.6714813786621336,3.672950740892207,-4.317253204412763,5.909576327897555
1241,12.442181825637816,1.6820250946430362,3.900563920018848,-4.144677317059677,5.934808958653237
1242,12.456418991088867,1.720471196218826,4.118451124676039,-4.137683915296779,6.086221240332104
1243,12.459718942642212,1.8131118450683292,4.313065307343726,-4.304999171852664,6.357902545477654
1244,12.469724893569946,1.9777858830713428,4.465913987662028,-4.637125690142458,6.734906043193981
1245,12.4806489944458,2.225582385836052,4.556580268801961,-5.1087489125504595,7.198260633907649
1246,12.489836931228638,2.5630870421929934,4.566082445045817,-5.682600942338861,7.727255499249635
1247,12.500754117965698,2.9943820160440553,4.479952943117931,-6.314129129542937,8.300875176455897
1248,12.511722803115845,3.5220944152874947,4.290520043445059,-6.956279889323639,8.899637139345156
1249,12.52020812034607,4.146957875990133,3.998098929947762,-7.563684768377241,9.507438243515859
1250,12.530300855636597,4.865666942953812,3.611087707569877,-8.095680599934841,10.112107278291559
1251,12.541826009750366,5.667312869613008,3.1451888057579156,-8.518047499844872,10.703634008856975
1252,12.55677890777588,6.529298131144566,2.6220651617901685,-8.803855146718776,11.270085414159395
1253,12.559922933578491,7.414085931529415,2.067731738409969,-8.933948641286092,11.79235443273598
1254,12.570956945419312,8.268191610854666,1.510906589236811,-8.897363540269701,12.23964497863101
1255,12.580016851425173,9.024397283173926,0.9813961259220181,-8.69166433803746,12.567733035263116
1256,12.591174840927124,9.607444587215403,0.5084251060372199,-8.323032016009522,12.721413031750169
1257,12.602860927581789,9.942682305077833,0.11876632597237735,-7.805836912403611,12.64128659444661
1258,12.610455989837646,9.966459748614357,-0.165378418832497,-7.161446016775568,12.273710889268834
1259,12.620743036270142,9.636544197908005,-0.3286562895160266,-6.416260316457647,11.581856305593766
1260,12.630470991134644,8.940671738543054,-0.36483072682161494,-5.599376563007625,10.555649221624162
1261,12.642246007919312,7.901697808746171,-0.27876086259657723,-4.74046715471616,9.21881579836599
1262,12.657303094863892,6.5785822686413535,-0.08758571224058592,-3.8682947263857006,7.632111111118243
1263,12.660162925720217,5.063169100194504,0.1795820418497598,-3.009942839104818,5.89302018846005
1264,12.67014193534851,3.4730118529908394,0.484062178797747,-2.190583771231977,4.134583991496871
1265,12.6800639629364,1.9403359708346788,0.7823528798641847,-1.433442238807999,2.536086820348552
1266,12.690249919891356,0.5969568298072091,1.0327728693088916,-0.7596807308025341,1.4142461133008875
1267,12.701564073562622,-0.44462193906052766,1.202505550638905,-0.18836423484318301,1.2958353880718714
1268,12.710728883743286,-1.1115934763626918,1.2729205223337294,0.2632003103695013,1.710333627176017
1269,12.72012495994568,-1.386958638817458,1.2419620626026933,0.5795153408193674,1.9498620620391842
1270,12.73092794418335,-1.3140318293647595,1.123877328721485,0.7493000801188449,1.8844708829440544
1271,12.742387056350708,-0.9853568302813934,0.9464092140014885,0.7710797472433047,1.5688156233088415
1272,12.757637977600098,-0.5187551459226888,0.7446656311786651,0.659414320132353,1.121811503451272
1273,12.760742902755736,-0.028435669570365908,0.5521186169520966,0.447049420685532,0.7109829386309356
1274,12.770503997802734,0.3997290141535709,0.39206132514569936,0.17984970802905934,0.5880827194445739
1275,12.781430959701538,0.7216816751788879,0.2737423264957412,-0.09421987385855429,0.7775838772982814
1276,12.790389776229858,0.9344709970937847,0.19475867145587336,-0.33688394429161467,1.0122538102858318
1277,12.803652048110962,1.0636167703435406,0.1472473960794233,-0.5266598114065796,1.1959652949642847
1278,12.81068205833435,1.1448606584445307,0.12342792578736989,-0.6591576896999262,1.3268116821948626
1279,12.820868968963625,1.207536390598911,0.11775714063944881,-0.74210286018913,1.4222262597396773
1280,12.830672025680542,1.2647856339729564,0.126304271817107,-0.7881034165780668,1.4955742924394109
1281,12.84144902229309,1.3124911796648009,0.14544303611696247,-0.8081131819353985,1.5481710784892524
1282,12.858092069625854,1.335532863597589,0.1710323988015934,-0.8078801633062397,1.5702135107853072
1283,12.860440015792848,1.31768770729324,0.1982042539433808,-0.7882711663707858,1.5482109843185219
1284,12.870561838150024,1.2506757378453033,0.22183132721484125,-0.7484030511141109,1.4742815422726088
1285,12.880511045455933,1.1386963850782108,0.2376607723872356,-0.6892032704089309,1.3520773824246333
1286,12.890787839889526,0.997095538649839,0.24346948063604829,-0.6152667234607783,1.1966745765640556
1287,12.904322862625122,0.8465543086073504,0.23939119450915955,-0.534248262263762,1.0292635945966615
1288,12.91080403327942,0.7059555010331282,0.22723720332420363,-0.45445742180419496,0.8697939205619091
1289,12.921118974685667,0.5870804176297604,0.20937719277579506,-0.3821100336926405,0.7311021156224329
1290,12.930922985076904,0.492889813561909,0.18785468145121528,-0.3196630316304507,0.6167772721553555
1291,12.94282603263855,0.4193079750812673,0.1640471715900864,-0.26594270479160126,0.5229303727125942
1292,12.95833706855774,0.3590186668524639,0.13882035519270963,-0.21777718103201132,0.44225828962564395
1293,12.96077799797058,0.30529652411275154,0.112949060289403,-0.17212118140589755,0.3682243323629618
1294,12.970747947692873,0.254371747626427,0.08751561959092893,-0.1276010756726223,0.2977347883196002
1295,12.981883764266968,0.2058361518466591,0.06403682835949658,-0.08493497442443383,0.23169632425626382
1296,12.990987062454224,0.16154561917862992,0.04425552064143206,-0.04635047241584061,0.17379270547471992
1297,13.00392198562622,0.12394732527558167,0.02975040561296006,-0.014532330592176594,0.1282934710324216
1298,13.011094808578491,0.09469529225025562,0.021586851634166664,0.008326800518122615,0.09748090143564253
1299,13.021267890930176,0.074014225179031,0.020142416608773767,0.02103166120152134,0.07953711868423001
1300,13.031157970428469,0.060806666588648035,0.025118186414003752,0.023430467282709488,0.06983810412259032
1301,13.042781114578249,0.05318363639453086,0.035667973623353486,0.01621832746051265,0.0660585926898108
1302,13.050924062728882,0.04902441567431752,0.05055610085918204,0.0007531555208995769,0.07042641485643521
1303,13.061513900756836,0.0463029591854217,0.0682863021021089,-0.02098292756406909,0.08513087767235974
1304,13.070986986160278,0.043135854711840456,0.08719696533186459,-0.04631959097950499,0.10774746973045837
1305,13.08102297782898,0.03768186360386019,0.10555242898685525,-0.07189466701929409,0.13315435124508782
1306,13.091202974319458,0.028083650427899152,0.12166563166023779,-0.09387559697898894,0.15621730076019957
1307,13.1040461063385,0.01258348981872433,0.13406866612074367,-0.10846535120900913,0.17290888891062564
1308,13.111430883407593,-0.010181316161530552,0.14171380663626323,-0.11260740197415081,0.18129227553729152
1309,13.121550798416138,-0.04081105380888511,0.1441559645083217,-0.10469736048922178,0.18277861338167076
1310,13.13148283958435,-0.07885694832278893,0.141652095483247,-0.08508777664914552,0.18309468640207124
1311,13.143224000930786,-0.12274157662199406,0.1351192934502914,-0.05623146047405541,0.19100967316134554
1312,13.151124000549316,-0.16994708528859917,0.1259235990387859,-0.022400533446279177,0.2126982569078769
1313,13.1618230342865,-0.21745781859295024,0.11552227502240486,0.010991490120871783,0.24648349183796026
1314,13.17126202583313,-0.2623720008802438,0.10504042485028074,0.03834808642705356,0.2852071763319551
1315,13.182130098342896,-0.30253019402716813,0.09490218862997564,0.05492692842948096,0.3217886125573321
1316,13.191399812698364,-0.3369664989481661,0.08462976622889526,0.057711714285729784,0.35219207928506796
1317,13.203818082809448,-0.36601179172557996,0.07287336728049049,0.04591676813682938,0.3760099851561098
1318,13.211532831192017,-0.3909897165907937,0.05767569650737371,0.021044412999047746,0.395780635915698
1319,13.221873044967651,-0.4136098807855825,0.03693215490011543,-0.013441088369778595,0.415472959897024
1320,13.231508016586304,-0.43529497013823093,0.00898201946699704,-0.052658636198690316,0.43856050855914386
1321,13.243493795394896,-0.4567135092017282,-0.026756169384704178,-0.09088030077766192,0.46643579532121926
1322,13.251435995101929,-0.4777279146666839,-0.06921346001046201,-0.12195889247615661,0.49788395731576746
1323,13.261895895004272,-0.49785460155390604,-0.11528292396628283,-0.13950811721508471,0.5297281110300944
1324,13.271901845932009,-0.5172100900199833,-0.15971277908662207,-0.13681989859282487,0.5583315624904276
1325,13.282543897628784,-0.5377998210031674,-0.19530493608100144,-0.10660997756011847,0.5820123304913839
1326,13.291516065597534,-0.5649030846463698,-0.21335517191580353,-0.04078987859648676,0.6052270141212485
1327,13.30193305015564,-0.6082352028264516,-0.2042369485500187,0.06946093418774406,0.6453585162439494
1328,13.31157898902893,-0.6825490602994551,-0.15806268642379065,0.23306493268116915,0.7383605456691552
1329,13.321600914001465,-0.8073903802450537,-0.0653980408399802,0.4577425335965689,0.9304216017061117
1330,13.331543922424316,-1.0058441203719817,0.08197018097341793,0.7481248333912306,1.2562373467591055
1331,13.342841863632202,-1.3022697674705808,0.2901898684687296,1.1035403646353943,1.7314496941607624
1332,13.359328985214232,-1.7191723553162312,0.5624027730473992,1.5158156767614748,2.359988905128753
1333,13.361527919769289,-2.273467198374255,0.8977544339151671,1.9674459736768222,3.137747565537286
1334,13.37168788909912,-2.972478010996953,1.290524962263233,2.430468936950949,4.050710981737453
1335,13.38278079032898,-3.810085261595669,1.7296662618480627,2.8663401263489954,5.071922791005632
1336,13.391742944717407,-4.76353434839295,2.1990710806639693,3.227096963997013,6.159653230594299
1337,13.401728868484495,-5.791525021245,2.6787903283648453,3.4581083588778276,7.257836669200309
1338,13.412415981292725,-6.834306828313309,3.1470797329541997,3.5026639196578606,8.29942860702916
1339,13.422245979309082,-7.8165162235691446,3.582658257250413,3.3085045970456153,9.213010839580955
1340,13.432291984558104,-8.653288084082678,3.966274117922428,2.836154272855405,9.932496972265563
1341,13.44429087638855,-9.25963696312958,4.281016378412805,2.0682398208879667,10.408918958177212
1342,13.451849937438965,-9.562149222853638,4.511683843889083,1.017331455065359,10.621909063666267
1343,13.462384939193726,-9.510938783254613,4.64425050757433,-0.2714653162682158,10.587762404486499
1344,13.47200083732605,-9.08938228218851,4.6663366442732634,-1.7251146724026378,10.361833263587515
1345,13.483064889907835,-8.319711074403493,4.568636536388204,-3.2525349613074463,10.033395030481984
1346,13.491997003555298,-7.263428458195197,4.346439905470263,-4.756330502702293,9.709356964810825
1347,13.503920793533323,-6.016157510134382,4.000496172704877,-6.144248433431967,9.484192618578762
1348,13.51276397705078,-4.69712193068062,3.537113277136675,-7.339378011002925,9.404285956699246
1349,13.522457838058472,-3.4343654444243663,2.967868765086121,-8.288274439390898,9.44979387051858
1350,13.53227686882019,-2.347987726856011,2.309563167173028,-8.966115959106276,9.551877500301657
1351,13.544588804244995,-1.5345674947840222,1.5848759719458088,-9.377957515259991,9.63394085514958
1352,13.552007913589478,-1.0557529318587877,0.823249226418895,-9.555722700209053,9.649051241713785
1353,13.562715768814089,-0.9326557160731054,0.06061426300630963,-9.551791144718926,9.597407714895441
1354,13.572091817855837,-1.1460990542318858,-0.6630195699405647,-9.430617020179312,9.523112693522593
1355,13.582772970199583,-1.6417146407984566,-1.3077390639718236,-9.259413299489403,9.494321622528442
1356,13.592923879623411,-2.338432288376761,-1.838471979842894,-9.098778241382279,9.572669965784991
1357,13.602412939071655,-3.138953811567007,-2.2292199797903924,-8.994728734308579,9.784048127091573
1358,13.61270308494568,-3.941191897721035,-2.4660151196108684,-8.973887198461373,10.106674804084689
1359,13.622783899307253,-4.649923905532696,-2.5480300835014096,-9.042647836786683,10.482544039202294
1360,13.63254690170288,-5.187655679791556,-2.48664247581526,-9.189663923380632,10.841821123745113
1361,13.645106077194214,-5.503137946281518,-2.3028898827338202,-9.390260976924463,11.124964282304537
1362,13.652239084243774,-5.575834169838375,-2.0242092834302254,-9.6116151902847,11.294710995805689
1363,13.662501096725464,-5.415349731252905,-1.6812370554603042,-9.81794879233337,11.337755035160797
1364,13.672430992126465,-5.0561191791012305,-1.3049458105278333,-9.975172060018757,11.259275391812224
1365,13.682442903518677,-4.5488008998578895,-0.9240138806048718,-10.054553721780957,11.074269358394607
1366,13.692425966262816,-3.950361950575977,-0.5623173429293696,-10.035250097724765,10.799435395362227
1367,13.702332973480225,-3.3147741254585,-0.23668940515682918,-9.90574481165208,10.448326643577657
1368,13.712406873703005,-2.6858499188319307,0.044656461454494874,-9.664329741893402,10.030705525838375
1369,13.72294783592224,-2.093180319681292,0.28259872006669273,-9.318690475610449,9.555064524508314
1370,13.733027935028076,-1.5514231775842513,0.48623189723737387,-8.884552454648512,9.032087668597862
1371,13.74531102180481,-1.0624317778101318,0.670716014542402,-8.383359272742387,8.476988495364388
1372,13.753525018692017,-0.6191487050979444,0.8542046062997612,-7.839161921117732,7.909833769046632
1373,13.762551069259644,-0.2100179247901117,1.054379745525459,-7.275175794377055,7.354182960438045
1374,13.77257490158081,0.17713204768967217,1.2851972239173715,-6.71061823205833,6.834874155616716
1375,13.783077955245972,0.5523847322614085,1.5544058211612743,-6.158410339999032,6.375525410905564
1376,13.792722940444946,0.9224342358181895,1.8622310809958744,-5.62416758259433,5.995836098121887
1377,13.803822994232178,1.2905478918502982,2.2013523864899383,-5.1066396366329965,5.708698150112281
1378,13.81335186958313,1.6574284343448162,2.558039148931037,-4.599408389414276,5.517716088659597
1379,13.823246955871582,2.0225403236800767,2.91410122673473,-4.093331637406958,5.416458179877834
1380,13.832899808883669,2.385515809671344,3.2491797957879176,-3.57908555208537,5.390520235811621
1381,13.84607481956482,2.7473600743463455,3.5428972238820036,-3.0492595294816183,5.422000718852555
1382,13.852734804153442,3.111267817338202,3.7765198577773007,-2.499711670760399,5.494601723903785
1383,13.862762928009031,3.4829252847474246,3.934026483889363,-1.9301709829933833,5.597579203429414
1384,13.872833013534546,3.8702288340665114,4.0027160392042145,-1.3442629423701173,5.727778782108477
1385,13.882898092269896,4.282434079628892,3.973620100899793,-0.7491875783428843,5.889837041904056
1386,13.892893075942991,4.728847147508012,3.8419606712468464,-0.1552126711792477,6.0948132142992515
1387,13.902792930603027,5.217235257388125,3.6077440473534876,0.4249670828229036,6.357354627801667
1388,13.913866996765137,5.752137207713502,3.2763857276849664,0.9770243503083511,6.691514213840936
1389,13.923255920410156,6.33322062442437,2.8591216920338702,1.4859651106383065,7.105797114858202
1390,13.933212041854858,6.953820393932106,2.3729633399321757,1.9372537323669645,7.598652848189465
1391,13.946401834487917,7.599823409299578,1.8400804027678141,2.318050061294799,8.155768990589229
1392,13.952938795089722,8.249086161706567,1.2866268936404501,2.618438217687057,8.749802853009994
1393,13.96293592453003,8.871504584692994,0.7410865944460859,2.832436526693707,9.342135709485557
1394,13.97298789024353,9.42969529833858,0.23226501877488318,2.9586000474255214,9.885667134750264
1395,13.983527898788452,9.880109804325656,-0.21287131374745064,3.0001935200953174,10.327780260044772
1396,13.99308705329895,10.174443718272316,-0.5712834598918402,2.9650600529618307,10.613069814408412
1397,14.002972841262816,10.26146781623716,-0.8256977154902655,2.8653238312101426,10.685952419823778
1398,14.014682054519652,10.089739960951384,-0.9660554102256088,2.716995121934148,10.493720885742071
1399,14.024358034133911,9.611781070214086,-0.9904590674562399,2.5394432979717063,9.990801607961473
1400,14.03325891494751,8.79005596172413,-0.905544538496871,2.3545803177591407,9.144897112281917
1401,14.0464448928833,7.604588300552362,-0.7262651606228777,2.185535655394236,7.945677466738249
1402,14.05336594581604,6.061483324009401,-0.47508490410478577,2.05470511289896,6.417873390331523
1403,14.063251972198486,4.201168889235144,-0.18054599216094372,1.9812853700214428,4.6484307684017026
1404,14.073288917541504,2.10478571133393,0.12483183137416215,1.9786001568024738,2.8914640681250874
1405,14.083416938781738,-0.10317185685178523,0.40731645141885486,2.0515693932424215,2.0941557007375957
1406,14.093305826187134,-2.258071882326553,0.635325899039058,2.1946086125979094,3.212294286990607
1407,14.104077100753784,-4.166246789350379,0.783283816259223,2.3902016060773428,4.8666425350831615
1408,14.113478899002075,-5.625490039507895,0.8357193807053823,2.608379845706589,6.25685308181177
1409,14.126076936721802,-6.455135151907643,0.7907008825686955,2.8071321673366656,7.0833585762676785
1410,14.13390588760376,-6.532593073202248,0.6607988559302613,2.9339315355256326,7.191618847185975
1411,14.151134967803957,-5.827331803733133,0.47041017475953867,2.930614636257593,6.539692946122485
1412,14.153408765792848,-4.418979183995807,0.2506577173897628,2.745451604400287,5.208426905696134
1413,14.163668870925903,-2.490337959529879,0.03408636297337202,2.3515848083418933,3.425331537769822
1414,14.173543930053713,-0.297239716531469,-0.15010358360379758,1.7628833950575296,1.7940569666161585
1415,14.183631896972656,1.874859399943593,-0.2806153027658311,1.0373583406284865,2.161007877027452
1416,14.19340991973877,3.7574716038716818,-0.34819712217810556,0.265536717938768,3.7829015105298254
1417,14.20440411567688,5.141132160646392,-0.3581974068667128,-0.45172973130317823,5.173355296677575
1418,14.213756799697876,5.905733401927477,-0.32956900187899646,-1.0274954231470101,6.003503109537752
1419,14.224081993103027,6.032688970847354,-0.28900175165267966,-1.4053915745561905,6.200966352857847
1420,14.233810901641846,5.596406980680056,-0.26190285157129445,-1.5639371638114046,5.816722758514119
1421,14.246334791183472,4.738851814810917,-0.26459738962332,-1.5118644637474892,4.981210942940951
1422,14.253567934036257,3.6356904935233,-0.3011208807662517,-1.2810657096860862,3.8665292578826627
1423,14.264046907424929,2.462870377216576,-0.3646579535955916,-0.9204023374332035,2.6544013224913727
1424,14.273603916168211,1.3696808127474582,-0.44148424522865887,-0.48962510631924844,1.5200876988949654
1425,14.284822940826416,0.46144131137947514,-0.5151996410050419,-0.051778185298601134,0.6935702808022776
1426,14.293740034103394,-0.20701290445268927,-0.570123477742742,0.33607816899275395,0.6934289135570705
1427,14.304394006729126,-0.6277867392604406,-0.5938948139307255,0.6319993073221016,1.0706308254765897
1428,14.314084768295288,-0.8290468998684097,-0.57974135404088,0.8152900225998957,1.2992754214243847
1429,14.325427770614624,-0.8606163129232399,-0.528273829341209,0.8874920494362627,1.34438678015257
1430,14.333997011184692,-0.7796675476438037,-0.4478161541509307,0.868064956457511,1.2497830057241992
1431,14.34689211845398,-0.6392412395243604,-0.3523643911147859,0.7866177402586079,1.0731064698919177
1432,14.353782892227173,-0.4810946960076074,-0.2574907441430634,0.6744109804875804,0.8675158560212144
1433,14.364108800888062,-0.3330004933133962,-0.17583267689192403,0.5573428969382591,0.6726347921253225
1434,14.373883962631226,-0.20949128334102074,-0.11407058775585066,0.4516173940482548,0.5107415857297795
1435,14.384867906570436,-0.1146224711359465,-0.07237371774600804,0.3625744700667243,0.3870872153066485
1436,14.393955945968628,-0.04551547066985144,-0.046020316021885915,0.2866388111117041,0.2938559776362964
1437,14.404628038406372,0.004163779653588934,-0.02812734888921378,0.2155952516360059,0.21746217451440125
1438,14.413995027542114,0.04129175399906903,-0.012363672099017705,0.14160048278250356,0.14801542507566484
1439,14.426483869552612,0.07118050097062004,0.0051416165710555265,0.06109988474439265,0.09394836802824336
1440,14.434427976608276,0.09636834276249572,0.025074140450039067,-0.023585898262473405,0.10233212888895594
1441,14.446780920028688,0.11635541789082743,0.04538693410643755,-0.1051698801380758,0.16327663870985468
1442,14.454038858413696,0.12827288359432218,0.06257564660293877,-0.17403106592668227,0.22506989163581087
1443,14.464683771133425,0.12829154348840818,0.07320009890460626,-0.22135798820126593,0.26611338476445345
1444,14.47508192062378,0.1133283303435013,0.07509367518551764,-0.24166915420811874,0.27728388090002865
1445,14.484236001968384,0.0824741166371159,0.06792918388608782,-0.23401808374980926,0.2572563263759227
1446,14.494090795516968,0.0376607428918721,0.053105239159677735,-0.2017774892276269,0.21202040736773278
1447,14.504149913787842,-0.01662064562842459,0.03315403022353548,-0.15137692228187774,0.15585380386985243
1448,14.51512885093689,-0.07438380752092778,0.010974705396652493,-0.09056956929896522,0.1177125391063068
1449,14.526814937591553,-0.12957621929113683,-0.010848202277274255,-0.026747478899824036,0.1327520535657734
1450,14.534581899642944,-0.17740054297332153,-0.030502165240517236,0.03434327482145329,0.18325063507952977
1451,14.548076868057253,-0.2151835340751618,-0.047137574358958836,0.08930235517167197,0.23769900061365454
1452,14.554306983947754,-0.2426550875107696,-0.060803729501636,0.13714576369550704,0.2852850250465159
1453,14.564835786819458,-0.26168518771822696,-0.07219125835200133,0.17882995906587412,0.32507056082191027
1454,14.575545072555542,-0.27563855231396805,-0.08228632068090957,0.21642389416209268,0.35998187740110793
1455,14.584920883178713,-0.2885507742318799,-0.09204226619060124,0.25219272905361545,0.3941249810184951
1456,14.594400882720947,-0.30432596834221387,-0.10213303109497829,0.28783926768462553,0.4311576220702766
1457,14.605098009109495,-0.32611326668684754,-0.11280972528940164,0.3240408642834862,0.47336917786715466
1458,14.614959955215454,-0.3559503496244642,-0.12386080490309073,0.36029514501396004,0.5213969139817096
1459,14.627206087112429,-0.39468879670134255,-0.1346701058529368,0.3950303752726907,0.5744251744484026
1460,14.634877920150757,-0.4421509192880705,-0.14435985437427018,0.42594580756951034,0.6306877468036688
1461,14.648953914642334,-0.4974183420008174,-0.15199228198679313,0.45055073587206196,0.6881298034072144
1462,14.654403924942017,-0.5591376323024793,-0.15679214835986044,0.46681810072281493,0.7450757067617888
1463,14.66511607170105,-0.6257551613229565,-0.15834656702003033,0.47379489011397813,0.8007026633572945
1464,14.67590308189392,-0.6956367568060386,-0.1567335697244298,0.4719869206731994,0.8551301436534414
1465,14.684725999832152,-0.7670596279630004,-0.15253345408114152,0.4633816047785126,0.9090486450744921
1466,14.69451093673706,-0.8380851655561734,-0.14669613072141371,0.4510660972793546,0.962999025756922
1467,14.705246925354004,-0.9063455823125179,-0.14027004309143978,0.4385113095452359,1.0165776744378017
1468,14.715205907821655,-0.9688099930907571,-0.13403675961218586,0.4286935282823482,1.067865533122507
1469,14.72809386253357,-1.0216309544457443,-0.12812878634873023,0.4232844020549607,1.1132459198200308
1470,14.735120058059692,-1.0601941447858017,-0.12172202939703596,0.4221396127126506,1.147619157081223
1471,14.748064994812012,-1.0794755904287723,-0.11288300285834384,0.42324750144770446,1.1649671970264175
1472,14.7546808719635,-1.0747349057399131,-0.09861009832051482,0.42316663753205447,1.159245044081167
1473,14.765357971191406,-1.042452279442222,-0.07504125270853385,0.41782486159881593,1.1255734358505536
1474,14.776242971420288,-0.9812981074686596,-0.03774233747468188,0.40343093634835747,1.0616623663682057
1475,14.785912990570068,-0.8928689451473405,0.018019323333909196,0.37721055053528774,0.9694469808385973
1476,14.7952299118042,-0.7819738043329343,0.09707610425488888,0.33774100992021533,0.8573072905686475
1477,14.80529808998108,-0.6563943295751712,0.20424287503163036,0.28480646700270473,0.7440990468655281
1478,14.81550908088684,-0.5261996556120093,0.344244965041122,0.2188714365907613,0.6658043100473773
1479,14.828346967697144,-0.4028070875372775,0.5216398301601441,0.1404046135839132,0.6738509610406562
1480,14.836026906967165,-0.2980229514965844,0.7406887656730416,0.04932635541037829,0.7999191312570668
1481,14.854918956756592,-0.22326953413681633,1.005137736755262,-0.05521216943367027,1.0311156765255458
1482,14.85687804222107,-0.1890997797298894,1.317861312196613,-0.1746491543075017,1.342765613194945
1483,14.865041017532349,-0.2049501167887034,1.6803457797501653,-0.31050785894609045,1.721040853775174
1484,14.876667976379396,-0.27895507040080014,2.0920614307797942,-0.46372686862089413,2.1609210004393162
1485,14.88503384590149,-0.41761423624143745,2.5498726919876895,-0.6339660229292109,2.6604821581594464
1486,14.895490884780884,-0.6251799719730127,3.0476852728284003,-0.8189292431323222,3.217123035388696
1487,14.905824899673462,-0.9027909213355024,3.5764702756170776,-1.0136531349148605,3.825397202636744
1488,14.91548490524292,-1.2475661901387662,4.124648182505753,-1.2097475780868945,4.475782974063027
1489,14.928668975830078,-1.6520232286884065,4.678647880430899,-1.3947690616072859,5.154057379618845
1490,14.935492992401125,-2.1041593298557344,5.223408871873234,-1.5520826213210022,5.841271025349673
1491,14.954754114151,-2.5882757919175496,5.742743761465142,-1.6615210210557232,6.51451683459973
1492,14.956875085830688,-3.0862856764134823,6.219685847911597,-1.7009630604969244,7.148631103667463
1493,14.965300798416138,-3.579100065176502,6.637000710330039,-1.6488362032402604,7.7187043297812385
1494,14.976983785629272,-4.047818479878732,6.977971017507281,-1.4874497899147676,8.203012912627704
1495,14.985251903533936,-4.47471842271242,7.227506441291738,-1.2068381966223414,8.585826270913135
1496,14.995276927947998,-4.844275225823067,7.373537456544721,-0.8085162805647474,8.85944443306291
1497,15.005173921585085,-5.144527297884552,7.408469090106748,-0.30834245039132036,9.024779800330851
1498,15.016824007034302,-5.368951147927559,7.330313826174641,0.26242722737491664,9.089994789256341
1499,15.02868390083313,-5.518628492220632,7.143090144780664,0.8587131780648387,9.067325160916765
1500,15.03567910194397,-5.604030877512209,6.856178938427297,1.4261951716060084,8.969190843066983
1501,15.054399967193604,-5.645488475344745,6.482608337333522,1.908603786470783,8.805595913636228
1502,15.05632185935974,-5.6715855802618,6.036634882013467,2.256683675169455,8.58489748935604
1503,15.0660240650177,-5.715362083319561,5.531262348298535,2.4370543310959643,8.318621323384395
1504,15.076335906982422,-5.809029566558644,4.976307673269268,2.4386969559562206,8.028431067598529
1505,15.085471868515016,-5.978479967079443,4.377411619472922,2.2751393245192633,7.751142764072969
1506,15.096564054489136,-6.2388735876241475,3.7362258501014045,1.9817747743778813,7.537264656470587
1507,15.106316804885864,-6.5921536220527575,3.051871068588603,1.6093174748470205,7.440450868790105
1508,15.116008043289185,-7.0267852846840295,2.323482113125369,1.215217183374116,7.50006889100582
1509,15.125913858413696,-7.519559080456103,1.5532775767721951,0.8548621168339432,7.725751046582523
1510,15.13604998588562,-8.03894212658882,0.7493726326751484,0.5740525096422376,8.09417606313783
1511,15.155044794082642,-8.549220768586826,-0.07238584564003656,0.40377248583166886,8.559056471422538
1512,15.157100915908812,-9.014629128323175,-0.8880585320317733,0.3577169909822092,9.065326674928182
1513,15.165769815444946,-9.402823854716454,-1.6669253024356265,0.43244284794902393,9.559222940358028
1514,15.176236867904665,-9.687338877196543,-2.3742815839814346,0.6096564733691404,9.992668741492327
1515,15.185717821121216,-9.848916968293764,-2.975158699344203,0.8601023811659265,10.32436491222175
1516,15.195689916610718,-9.8758384085005,-3.4382577617862218,1.1485585340953812,10.520122975209949
1517,15.206697940826416,-9.763535778860353,-3.739494547913767,1.4393602472605762,10.55377696847707
1518,15.21729302406311,-9.51383434842018,-3.8647172187410734,1.7016581819908971,10.4088771612672
1519,15.226244926452637,-9.134074184212576,-3.811227250072003,1.9134263461894343,10.080573631330802
1520,15.2361900806427,-8.636260160862877,-3.5877928669556556,2.0633524614137975,9.576777673221173
1521,15.255823850631714,-8.0363535510422,-3.213062077653099,2.150348524826097,8.918001182463636
1522,15.257617950439451,-7.353806909573002,-2.7126526493191867,2.1812373136858225,8.136016020003733
1523,15.265819787979126,-6.611318421083417,-2.115527437684078,2.1676332937621052,7.272112602316952
1524,15.276431798934937,-5.834552920344534,-1.4503827174217339,2.1229167723415463,6.3759229472748205
1525,15.285841941833496,-5.0514261361869535,-0.7426636131574899,2.059783222814836,5.505557390187688
1526,15.295845985412598,-4.290633496521256,-0.012573120769117157,1.9884956849024238,4.7290389059207
1527,15.306029081344604,-3.5793956995579457,0.7258165412372458,1.9157939320935746,4.124215030256554
1528,15.316787958145142,-2.940704103987799,1.4644321016361481,1.8443781434107076,3.7674968803443325
1529,15.326371908187866,-2.3905013702183866,2.200223872905232,1.7729100104068747,3.7011743807768616
1530,15.33638310432434,-1.9352002289459944,2.933524888236385,1.6964680820233269,3.9023803183875905
1531,15.355441808700562,-1.5698450413097615,3.6658911205273736,1.6073334341048777,4.299615323453677
1532,15.356997966766356,-1.2771747749731468,4.397605127493309,1.4959541025070504,4.817466651673971
1533,15.367078065872192,-1.0278469493024842,5.125142684751067,1.3519995412273123,5.399209168917857
1534,15.376664876937866,-0.782039792433699,5.838997612048861,1.165504151144864,6.005320913722926
1535,15.386082887649536,-0.49251201386671245,6.522251786229034,0.9281287617563274,6.60634236511931
1536,15.396139860153198,-0.10899482193378464,7.150199736916354,0.6345410714525618,7.179127977712004
1537,15.406121969223022,0.41643074331489666,7.6912602023377845,0.2838667492399763,7.707754432736355
1538,15.416221857070925,1.123532969106281,8.109317564589283,-0.1189187326930023,8.187643089498366
1539,15.426989793777466,2.0384564819952105,8.367451659891774,-0.5619405041029433,8.630488354650934
1540,15.437817811965942,3.169443790929606,8.432697914684255,-1.0261807701533552,9.06690768879969
1541,15.45461893081665,4.504578221436474,8.281111013507203,-1.4865462854657103,9.54347129874146
1542,15.456084966659546,6.012073510837779,7.902164537756416,-1.9144955167617654,10.11209797051004
1543,15.466191053390505,7.642994581961696,7.301603631384419,-2.281933105922156,10.813695042382392
1544,15.476366996765137,9.335471872714562,6.502301057070121,-2.5654858630243447,11.662447077538989
1545,15.48738408088684,11.018986261114524,5.543171318356561,-2.750030009593331,12.637542147939422
1546,15.496458768844604,12.61763644206889,4.476466609601347,-2.8307033457351243,13.68416545218073
1547,15.507295846939089,14.052314446940272,3.363838519268576,-2.813321287379082,14.720656492338295
1548,15.516901969909668,15.242712141086614,2.2715963995483786,-2.7135313249467625,15.648120521964858
1549,15.526734113693236,16.110446084857372,1.2656278358371076,-2.555021663548898,16.36081974025587
1550,15.536740064620972,16.584177881238862,0.4063612520685054,-2.3669740671749264,16.75716717403134
1551,15.555710077285768,16.606701665609034,-0.2559924160321918,-2.1809348711231267,16.751255154157516
1552,15.557846784591677,16.14303854469027,-0.6857108922693489,-2.027277789850877,16.284279171039632
1553,15.566499948501589,15.188021390676578,-0.8650221267363672,-1.9313942313262065,15.334749450845063
1554,15.578377962112429,13.771834191872513,-0.7963263560928823,-1.9098167464547136,13.926412053320693
1555,15.587575912475586,11.962395452881921,-0.5027791928709895,-1.96673938860726,12.133414841280805
1556,15.596606016159058,9.86409605152472,-0.026992288612445285,-2.091668342588396,10.083461506483605
1557,15.607406854629517,7.612919477945328,0.5721899575762482,-2.2589705477719195,7.961588551346487
1558,15.617103815078735,5.368134809799445,1.224692731632729,-2.429825067293719,6.018371331244317
1559,15.627114057540894,3.3004858022458934,1.8557354267580448,-2.5566551639547757,4.568746669747426
1560,15.636971950531006,1.5762878596499543,2.3936045414595135,-2.5898211334225434,3.8627968650315374
1561,15.65570902824402,0.33663455149657057,2.778197852564848,-2.4865552876643395,3.7436163435732457
1562,15.657904863357544,-0.3276650698815887,2.9691138475313585,-2.2221807904897664,3.7230483347983405
1563,15.667468786239624,-0.4003463023900612,2.9514246644126985,-1.8013825393828728,3.4808280286067697
1564,15.677221059799194,0.047160186243532104,2.737758241918307,-1.2632834594464664,3.015531358362764
1565,15.687289953231812,0.8633473673253376,2.3661740508993665,-0.6744859804515291,2.6075044877512235
1566,15.69675898551941,1.8457595504393742,1.8935952731526058,-0.11171910968337083,2.64669842181018
1567,15.707832098007202,2.7825758906172897,1.3852426563427271,0.35725749638285265,3.1287791105665805
1568,15.717710971832275,3.4944864269751585,0.9021905338313421,0.6864788201033802,3.673776846529879
1569,15.727232933044434,3.8670252702985994,0.4906325575113769,0.8560943902062765,3.990927505300086
1570,15.737294912338257,3.8667891951093454,0.17620808523078443,0.8705231367221424,3.9674826401994046
1571,15.755325078964232,3.5384800699981125,-0.035688003392176905,0.7535369279357165,3.6180012080046025
1572,15.757105112075806,2.98454193944427,-0.15552497945863092,0.5419319120019885,3.037329222324031
1573,15.767002820968628,2.334029124493363,-0.20379256858969466,0.2785236002665479,2.359406442498002
1574,15.776955842971802,1.709603511465232,-0.2051617607892974,0.00535028146058315,1.7218780851198856
1575,15.788042783737184,1.2006894419662004,-0.1832833645868192,-0.24188879059879095,1.2384498838470277
1576,15.797006845474243,0.8484153480106894,-0.15679341811616448,-0.43722331081122245,0.9672419564004533
1577,15.807806968688965,0.6449331223524161,-0.13714072935330923,-0.5650842069807702,0.8683700092321706
1578,15.817606925964355,0.5458722929862567,-0.12876741298744787,-0.6189955929672297,0.835292254848808
1579,15.827483892440796,0.4909171047312491,-0.1314341442881485,-0.6001021123727038,0.7863822755356654
1580,15.837540864944458,0.4254728058819577,-0.1430801322609097,-0.5165158666559901,0.684315477904931
1581,15.8560950756073,0.31680736554997774,-0.16127414741139973,-0.3828455919146227,0.5224433028936718
1582,15.858078956604004,0.1605404263115749,-0.1829511249162139,-0.21900612365053937,0.3274263654393849
1583,15.867221117019652,-0.02301338484725331,-0.20383562688125323,-0.04815356024021666,0.21070677262966525
1584,15.877229928970335,-0.1998227456253694,-0.21883070673134258,0.10611106776497366,0.31476271472336553
1585,15.887298822402954,-0.3358481872719131,-0.2233538125963339,0.22325553774951476,0.46100321650827264
1586,15.897454977035522,-0.4088087481924035,-0.21479186129010325,0.28976506999392776,0.5451824759323183
1587,15.908063888549805,-0.4145337825896181,-0.1934045182142611,0.3025228676607493,0.5484192283567658
1588,15.917834997177124,-0.366572013038023,-0.16249911104043635,0.27007785253836747,0.4834491165194293
1589,15.92758584022522,-0.29017083773101565,-0.12789164691542385,0.21053972232031062,0.38063415912785914
1590,15.937628030776978,-0.21347571663041423,-0.09656953133220857,0.14617523464292423,0.2761607415899394
1591,15.956357955932615,-0.15922777971052862,-0.07462679324274821,0.09651874855250743,0.2005953960672644
1592,15.95848798751831,-0.13946829390506968,-0.06514630023823513,0.0727087359120856,0.17024102242836353
1593,15.967434883117676,-0.15432550605279008,-0.0671061062111691,0.0751607466062519,0.1843060746141691
1594,15.977474927902222,-0.1944955419874834,-0.07593413227268837,0.09511117534540522,0.22943548978437375
1595,15.987550973892212,-0.24600055699159365,-0.08534305649895343,0.11899710741957227,0.28628660972351305
1596,15.998087882995604,-0.29539199460978033,-0.08945336599685272,0.1337167688521077,0.33636068355258075
1597,16.00750184059143,-0.3337455283558498,-0.08435161352138792,0.13078353525329173,0.36824666392859
1598,16.017980813980103,-0.35843528713227557,-0.06874681865136395,0.10816567981319385,0.3806596832155078
1599,16.027901887893677,-0.37253840389620163,-0.04379468015929959,0.06974329676688479,0.38153238896809083
1600,16.03818106651306,-0.3825081527328224,-0.012352117412632934,0.023195369867498462,0.3834098158562737
1601,16.056777954101562,-0.39521456151136425,0.02200495930385648,-0.02260080647584072,0.3964713915504405
1602,16.058624029159546,-0.41546886152446466,0.055891104191995354,-0.05981993954350496,0.4234579265891995
1603,16.06763792037964,-0.4447669150936643,0.08674834480459341,-0.0831674456282286,0.46071651598417407
1604,16.07768988609314,-0.48139684095759555,0.11314418901663341,-0.09048872562939193,0.502725308153683
1605,16.088720083236694,-0.5215319548804822,0.13475951135028705,-0.08258123459666415,0.5449544624721728
1606,16.09855580329895,-0.5606890323874234,0.1521429765506749,-0.06237918377098027,0.5843037214678493
1607,16.108439922332764,-0.5949938164144036,0.16633194493420564,-0.03378503768556227,0.618728847111873
1608,16.118098974227905,-0.6219208140958379,0.17846386399258393,-0.0005056947506816669,0.6470201739389384
1609,16.128402948379517,-0.6404306446705869,0.18951371431158082,0.03477023474395159,0.6687868328320351
1610,16.138439893722534,-0.6506534238937366,0.20024985274865012,0.07066354292068484,0.6844291182062625
1611,16.15903878211975,-0.6534054909542086,0.21140719063704252,0.10688057474087595,0.6950217213289792
1612,16.160197973251343,-0.6498248175060987,0.2239911369933307,0.1436755133690703,0.7022015209612305
1613,16.16786789894104,-0.6412816847552828,0.23958595328768637,0.18128826897686587,0.7081730471318235
1614,16.17784810066223,-0.6295480479222263,0.2605509537769275,0.21959892361949288,0.7158500062244829
1615,16.188999891281128,-0.6170722811211565,0.29004793791445865,0.25807943591534643,0.7290480105307747
1616,16.199582815170288,-0.6071490534747848,0.3319290855599335,0.2959347986086656,0.7525850755918112
1617,16.208460092544556,-0.6038084544596742,0.39056664916362926,0.33220298238307405,0.7921399993814824
1618,16.21868395805359,-0.6113585135524245,0.47069328198958543,0.36558895962193183,0.8537954586436988
1619,16.22809910774231,-0.6336626170575269,0.5772821810209765,0.39394621321946244,0.9433857364251824
1620,16.23863911628723,-0.6733646903550666,0.7154815448405408,0.413521961930608,1.0659898030578534
1621,16.257576942443848,-0.7313390279992642,0.8906272791009662,0.4182492244681852,1.2259715077936915
1622,16.259730100631714,-0.8066215804897777,1.1083478250917964,0.39943312065452996,1.4278025400500445
1623,16.268136978149414,-0.8969982747595644,1.3746986312198501,0.34612500223277415,1.6775591640147904
1624,16.278100967407227,-1.0002979033613009,1.6960654942295397,0.2463108570139608,1.984415050957853
1625,16.28913378715515,-1.1162163637397973,2.0783674988383547,0.08882975817049421,2.3608136641515616
1626,16.298017978668213,-1.2481398018631602,2.525321393402786,-0.1341952621193459,2.8201257903412884
1627,16.308660984039307,-1.4041196977594692,3.0362863113160885,-0.424760340919064,3.3720925309278336
1628,16.319226026535034,-1.5962862393586092,3.6046262299933827,-0.7768739281745153,4.018083263970429
1629,16.32872700691223,-1.8386270916305034,4.217088931690566,-1.1758273621732132,4.748363784031289
1630,16.338484048843384,-2.143690371368451,4.854199347204607,-1.5993346189872235,5.542249627560134
1631,16.356497049331665,-2.5190003641182805,5.491666214799682,-2.0201512012655796,6.370617829157158
1632,16.358032941818237,-2.9639658153217288,6.102725485622105,-2.4092705240881775,7.199509439225528
1633,16.36822199821472,-3.468024934824562,6.66089869238616,-2.7390148024563077,7.993558058015926
1634,16.37931990623474,-4.010596042445149,7.142417633923449,-2.9857362391863136,8.718579652847577
1635,16.38888192176819,-4.562968042286548,7.527863505676689,-3.1319641380279877,9.343372286113867
1636,16.40034794807434,-5.091752556466755,7.802981671394215,-3.167868561832659,9.841130945447658
1637,16.408992052078247,-5.563234499339251,7.958833963338858,-3.0920646753604517,10.190852766439445
1638,16.418834924697876,-5.947970715933542,7.991514826460053,-2.9118811652241092,10.378907301807871
1639,16.428748846054077,-6.225100091608784,7.901645450434588,-2.6431516932074706,10.400678960924946
1640,16.43893599510193,-6.385864283791591,7.69372436371252,-2.309480726651741,10.261888640136599
1641,16.458157777786255,-6.435800193211719,7.375284977227389,-1.9408241373247614,9.979035572352792
1642,16.46018099784851,-6.395049950173978,6.955915396007163,-1.5710844274160598,9.578607891530947
1643,16.46942400932312,-6.296367210572463,6.4464608495382745,-1.2344587514329006,9.095327698548914
1644,16.479028940200806,-6.180831582408813,5.858733159020002,-0.9608297210965571,8.570334126021296
1645,16.489725828170776,-6.091965667838504,5.205589543920824,-0.771387592502321,8.050170620289197
1646,16.49972176551819,-6.069411000893778,4.500854021628351,-0.6760109728817979,7.586331633749945
1647,16.509325981140137,-6.143139723590084,3.7588910424676247,-0.6730970701976948,7.233290205612002
1648,16.519774913787842,-6.3287391456876705,2.9942769654781354,-0.7512961906731495,7.041525380645336
1649,16.52905583381653,-6.624372046677523,2.221936604748731,-0.8922081930277119,7.043815922355627
1650,16.539096117019653,-7.010423841776595,1.4574263671681935,-1.0734988129803045,7.240340721163398
1651,16.558017015457153,-7.452581506102007,0.7168072675983032,-1.2721586327295429,7.594285440435044
1652,16.56016707420349,-7.907888440982478,0.0160034010370442,-1.4675194361550652,8.042920427267816
1653,16.569132089614868,-8.332137494325915,-0.6300402232098649,-1.6435613735777372,8.51602958519584
1654,16.57978391647339,-8.686652439188338,-1.208094946263515,-1.7901265357418201,8.951088035116802
1655,16.588819980621338,-8.942992921990628,-1.7071616826312914,-1.90285011168171,9.301202178264166
1656,16.60012984275818,-9.08489699376108,-2.118749650427802,-1.9819581265105408,9.53690785756464
1657,16.609873056411743,-9.107534427795105,-2.4369258324199303,-2.0304517022780493,9.644092750563557
1658,16.618761777877808,-9.0148002522397,-2.6581369566029007,-2.052344237247315,9.620001691060214
1659,16.62943196296692,-8.815820595709402,-2.780834538313929,-2.0514299219968266,9.468901637997812
1660,16.63929009437561,-8.521879194177679,-2.8049927801453065,-2.030706591030931,9.198596564459285
1661,16.656741857528687,-8.144581916525432,-2.7316642073687225,-1.9923178784079567,8.818476878998803
1662,16.65870690345764,-7.695486235991987,-2.5627245259375053,-1.9378111073414297,8.3392552000715
1663,16.668993949890137,-7.186868086692683,-2.300881113437411,-1.8685246299522853,7.7740922998400945
1664,16.67887592315674,-6.632911092677171,-1.9498783210244655,-1.7859355775156291,7.1405252549933
1665,16.690021991729736,-6.0504832510400615,-1.5147118909465092,-1.6918387306248153,6.4625860129001955
1666,16.70052194595337,-5.458854595198951,-1.0016512818383947,-1.5883151287171862,5.772793407878468
1667,16.70953679084778,-4.878109618962619,-0.41797780236118715,-1.4775459881000268,5.11407870929191
1668,16.71898102760315,-4.326429698309118,0.2284931370329227,-1.361579204019249,4.541376550881898
1669,16.729670763015747,-3.8167062706261676,0.9299179877116125,-1.2421538325871304,4.120065577623446
1670,16.73902201652527,-3.3530709881130742,1.6787354865594186,-1.1206541747653727,3.9137071511009274
1671,16.756947994232178,-2.9279728731359516,2.4675924408986183,-0.9982042136948726,3.9570758461821525
1672,16.759330987930298,-2.5204391542765703,3.288766119535335,-0.8758328562985092,4.235053637391846
1673,16.769123792648315,-2.0960771050452944,4.1330504843250075,-0.7545824246912435,4.695214603394307
1674,16.77961492538452,-1.6091515094683877,4.98818981611428,-0.635430379248599,5.279694876494534
1675,16.78928780555725,-1.0067302074189406,5.837099915480848,-0.5189400898221882,5.945968377872604
1676,16.800867795944214,-0.2345272973054302,6.656278397639293,-0.40463280454228495,6.67268857856956
1677,16.810138940811157,0.7562059892208163,7.414916977107595,-0.2901707001684025,7.4590240856809205
1678,16.819710969924927,2.0015463923801917,8.075247607881076,-0.17055310838276283,8.32135206875771
1679,16.829654932022095,3.5183822017275608,8.59454875464182,-0.03764010558540771,9.28691005614338
1680,16.839762926101685,5.299379773495446,8.928992928906233,0.11960047498823156,10.383864645776521
1681,16.858350038528442,7.310194080045237,9.039150579720417,0.31372358145105317,11.629428325431428
1682,16.859983921051025,9.48935681643913,8.896530528619323,0.5560884902950002,13.019423283901402
1683,16.870211839675903,11.750704627163323,8.490099583244952,0.8530332631525797,14.522001098894682
1684,16.88093090057373,13.987630448877194,7.831394036316435,1.2018838203249573,16.075728998834485
1685,16.88986086845398,16.078279641344206,6.9568315466289015,1.588243309256572,17.590653717324802
1686,16.901156902313232,17.891351838854884,5.9263171057668504,1.9857833728696548,18.951650077599215
1687,16.909558057785034,19.29314950907839,4.818030599538842,2.3587883663430924,20.02505728818122
1688,16.91946578025818,20.157165233486253,3.71999996424806,2.6667142540030193,20.670294504350327
1689,16.929518938064575,20.377124647097546,2.719533229977314,2.8697913714154186,20.75713786599086
1690,16.940099000930786,19.88292082064819,1.8918823618372977,2.935167048566047,20.187247579454322
1691,16.957317113876343,18.656894646275727,1.289726072075344,2.8433901651588487,18.916341581144724
1692,16.959638833999634,16.746491236119976,0.9352276146092869,2.5944212910891586,16.97205471497861
1693,16.970207929611206,14.269457751674725,0.8165005730753405,2.211230044862262,14.462836375481947
1694,16.979771852493286,11.409483773917275,0.8899503541119225,1.738961661245343,11.57550514143321
1695,16.989782094955444,8.402197605993836,1.0887231240653261,1.2392394094659758,8.56259055222289
1696,17.001492977142334,5.512300231731,1.335704554184276,0.780845001424866,5.725319154166033
1697,17.01061987876892,3.0025209123087313,1.558114553960872,0.4279663484095907,3.4096932394992634
1698,17.02019476890564,1.0959306989127708,1.7002227065604885,0.22614098210572564,2.0354265136602328
1699,17.030102968215942,-0.06299659186826287,1.7313184870508698,0.1874558597259642,1.742576246118582
1700,17.040161848068237,-0.43765518596961506,1.6478816529977665,0.28156853060645204,1.728102092331534
1701,17.05939793586731,-0.10706683247395292,1.4704408720606266,0.44110438003091346,1.5389063450791534
1702,17.061542987823486,0.7519198115598156,1.235870019642521,0.5828356067533514,1.5596331148596778
1703,17.069833993911743,1.9012635209709614,0.9864812410887874,0.635502791417549,2.2342363377884777
1704,17.080923795700073,3.0857286499082024,0.7586973268933919,0.5614965139108999,3.2268593507981675
1705,17.08989691734314,4.075020862748562,0.5743658361935757,0.364547209315737,4.131414505159494
1706,17.102138996124268,4.6983698188161505,0.4367544583414106,0.08344659036831416,4.719364019090676
1707,17.110702991485596,4.867116003065504,0.33219140847713846,-0.22273006442248705,4.883521065866307
1708,17.120394945144653,4.581354304503479,0.23694718917613788,-0.49134357891674796,4.613715395036168
1709,17.13013195991516,3.919269112860589,0.1270532131453666,-0.6703833142209524,3.978219034439841
1710,17.140399932861328,3.0123055180730636,-0.012485854124874497,-0.7284002743069846,3.0991462357199517
1711,17.16004204750061,2.012980787833327,-0.18223028862965837,-0.6598956852676734,2.1262083260384017
1712,17.16217303276062,1.0631955137691103,-0.3680640244026395,-0.4857920742608553,1.2254998025185044
1713,17.17014479637146,0.2698757340926067,-0.5457017934017138,-0.24808757506974208,0.6573969912296944
1714,17.1801118850708,-0.3075811845693773,-0.6881115793599664,0.0015670803066708356,0.7537281913866936
1715,17.19015598297119,-0.657195041390738,-0.773498903850825,0.21673451658270038,1.0378726932361881
1716,17.200960874557495,-0.8046014009062251,-0.7915016785294995,0.3684626331177474,1.1872754665448702
1717,17.210340976715088,-0.7984880817441756,-0.745652203397257,0.4494315160257928,1.1813420811585102
1718,17.220628023147583,-0.695672208143979,-0.6513444133528008,0.469777711545457,1.0624972772928458
1719,17.230575799942017,-0.5487699038996272,-0.5303614911137539,0.44906212335909196,0.8854877239793824
1720,17.24066185951233,-0.3981622609818108,-0.40440850409721346,0.40860394535344136,0.6993115245830657
1721,17.261396884918213,-0.268752784301284,-0.29012177138365935,0.3657854565430743,0.538700010691396
1722,17.2625949382782,-0.17086414082713308,-0.19681674932341475,0.33066091524367786,0.42103209890056714
1723,17.27036190032959,-0.1039043872254781,-0.12677979830996378,0.3051755605071925,0.3464121269169085
1724,17.280688047409058,-0.06115958890164933,-0.07714254086188789,0.2849691918965986,0.30149445642573136
1725,17.290299892425537,-0.03417798957483322,-0.04238895717118896,0.26290739743175107,0.26848697973230473
1726,17.30204176902771,-0.015756635826758562,-0.016779623121868474,0.23288290721810465,0.23401768266318118
1727,17.310581922531128,-0.0013142543734711138,0.0038866231542824077,0.19250766013397064,0.192551375778928
1728,17.320827960968018,0.010997520430034522,0.021557014425826374,0.1439524755291515,0.1459724821243212
1729,17.330610990524292,0.020925000872975708,0.0362539569062768,0.09300085177998418,0.1019870750864971
1730,17.341081857681274,0.027052529567518732,0.047058506453666486,0.04698400469668253,0.07179024364765126
1731,17.360338926315308,0.027749121594203213,0.05320601674304859,0.012471320027280977,0.061289703785662904
1732,17.36240792274475,0.02191879095029826,0.054860144660651505,-0.006530561034517665,0.05943666457950048
1733,17.370507955551147,0.009441734283577249,0.05335358221027985,-0.009419344271183922,0.054995228224363736
1734,17.381405115127563,-0.0087178243321372,0.05090473708494358,0.0012070323798488531,0.051659942372589196
1735,17.390456914901733,-0.03069872880484478,0.04999753180614991,0.02057220072689691,0.06217218493577426
1736,17.40121293067932,-0.05415948417497576,0.052698887571413264,0.04314413374196809,0.08701631314706879
1737,17.41077208518982,-0.07683875190945703,0.06014712538528976,0.06399789162909347,0.11669447553370317
1738,17.421021938323975,-0.09713789421266655,0.07231807937212983,0.0797508390767646,0.1450030048984947
1739,17.431090116500854,-0.11457385942390273,0.08806031427806384,0.08890393647268097,0.16966348497652078
1740,17.441272020339966,-0.12996696428487695,0.10534160515588115,0.0916581920156212,0.19076029394456417
1741,17.462237119674683,-0.14530197805607922,0.12164237555529961,0.08944092365431386,0.20954524853091439
1742,17.46334481239319,-0.16330692513594303,0.13441723627028646,0.08439361949926187,0.22772665240609125
1743,17.470762014389038,-0.1868832435940209,0.14152675871923603,0.07896424174356484,0.24736717980348796
1744,17.48169493675232,-0.2185477765953087,0.1415694902242179,0.07562127584459848,0.27115240839325533
1745,17.490782022476196,-0.26000538731428136,0.13411766654986698,0.07664265595397518,0.3024308956189995
1746,17.502145051956177,-0.3119016806911223,0.11990572624537468,0.08392208016709428,0.3445329550913087
1747,17.51092505455017,-0.3737570222616237,0.10099695543716075,0.09874935152203862,0.39955741905697967
1748,17.521382093429565,-0.4440678592075065,0.08090143156934927,0.12155201510134382,0.4674571612311713
1749,17.530985116958618,-0.5205560772642677,0.06459571096076014,0.15161857186536548,0.5460214526790877
1750,17.541292905807495,-0.6005308672924926,0.058415979844089985,0.18683588613877114,0.6316307446772033
1751,17.55963397026062,-0.6813054005828247,0.06984047859290922,0.22346686687730394,0.7204111200594897
1752,17.561182975769043,-0.7606013959008193,0.10720915745857806,0.25599368343355194,0.8096548973773522
1753,17.571359872817993,-0.8368876563924386,0.17942003111046737,0.2770693386272845,0.8996332115885175
1754,17.581876039505005,-0.9096278592563078,0.2955999878190627,0.2776478317701125,0.9959370028372718
1755,17.591010808944702,-0.9794428774522038,0.4647117674155411,0.24737848352834912,1.1119629000461817
1756,17.60266399383545,-1.0482021336106535,0.6950558246544938,0.17532866308852843,1.2698702502194763
1757,17.611215829849243,-1.1190355605087756,0.9936557078729874,0.05103995132170546,1.4973968505719115
1758,17.621457815170288,-1.1962273026832126,1.3655565397419365,-0.13414571064452002,1.8203569690038954
1759,17.631205797195435,-1.284959737280916,1.8130730781479858,-0.38560145403867563,2.255447626191926
1760,17.641463041305542,-1.390920062885551,2.334973994608842,-0.7039038742521104,2.807533230617983
1761,17.660107851028442,-1.5197898886761017,2.925577158981792,-1.0834360115697144,3.470244459695049
1762,17.662025928497314,-1.676583026624081,3.573897709293462,-1.5112765829409824,4.2270122299093
1763,17.671109914779663,-1.8647911720274453,4.263242755688756,-1.966592975726842,5.051749483236704
1764,17.68110990524292,-2.085446367940018,4.971670527594222,-2.420772471108414,5.90988441049227
1765,17.69124698638916,-2.3364163139302603,5.673415577191239,-2.838511181296811,6.760446082165191
1766,17.70187497138977,-2.612318596698598,6.34094887267628,-3.180081076612929,7.559415103722215
1767,17.711686849594116,-2.9052994554358333,6.947105220022799,-3.404914497640629,8.264168355017164
1768,17.72189688682556,-3.2066465047877575,7.466849821214141,-3.476283743923236,8.838607171240168
1769,17.73140597343445,-3.5089267939979796,7.8785942929681,-3.3663874442274624,9.25836809073169
1770,17.7416729927063,-3.8081821088918963,8.1651023716158,-3.0610721887475645,9.515319787488705
1771,17.760853052139282,-4.105715436693237,8.313915027698677,-2.5637144089895996,9.620328159982689
1772,17.762555837631226,-4.409099309432767,8.317279036699482,-1.897884325070743,9.60308555653392
1773,17.771333932876587,-4.732084883814703,8.171932267125207,-1.1080274880569965,9.50793506711103
1774,17.782327890396118,-5.09299112251497,7.879382180500818,-0.25694076904466945,9.385586858540462
1775,17.791417837142944,-5.511047243426922,7.447000564615066,0.5810955597015742,9.282625230944394
1776,17.802057027816772,-6.000511890064728,6.889309728098906,1.3316180394152868,9.232656068292732
1777,17.811846017837524,-6.563635240545756,6.227996541138192,1.9336473592300394,9.252472134366077
1778,17.82261300086975,-7.185206075281147,5.489498994819374,2.3513066412443058,9.342934682397154
1779,17.83176302909851,-7.831881934931931,4.700556935407868,2.5787723117838084,9.491242109531658
1780,17.842052936553955,-8.457584563727892,3.8836718779140393,2.6371059590100456,9.673053899723445
1781,17.860377073287964,-9.0131842757241,3.054690806835045,2.5655770192965126,9.856511155346253
1782,17.861427068710327,-9.456908553555392,2.2235530029859274,2.411599288549055,10.009651266449156
1783,17.871538877487183,-9.76227090650417,1.3974651831237086,2.2221938024033823,10.109054727592524
1784,17.88261580467224,-9.921839347715606,0.5845717612821691,2.0381507838014574,10.145870036792147
1785,17.89164400100708,-9.946659667418634,-0.20367188057168323,1.890997095543175,10.126864805542775
1786,17.902329921722412,-9.862166698768274,-0.952045571951948,1.8022679744656207,10.07059544501474
1787,17.912102937698364,-9.701970147577043,-1.6425657045802033,1.784255933615819,10.000490791705298
1788,17.9220929145813,-9.501046022726403,-2.256145475399555,1.8414867411346787,9.937360884556115
1789,17.932212114334106,-9.289653785847968,-2.7742941330604425,1.9725041229834106,9.893692329602716
1790,17.942222833633423,-9.08886930682615,-3.1805086780624734,2.1717815814005035,9.87116082156033
1791,17.96141505241394,-8.908166166678647,-3.4612740054974975,2.4315700901886745,9.861459085641993
1792,17.963404893875122,-8.745127452352186,-3.6067853316897436,2.7433441862784504,9.849471656447562
1793,17.971755981445312,-8.587133511831146,-3.611523263344499,3.098466782358494,9.817456831230327
1794,17.982919931411743,-8.41467488469554,-3.474644967767892,3.4879450713443196,9.749136981696163
1795,17.991903066635132,-8.205735983888792,-3.199984366420679,3.9016130780245457,9.633098545807382
1796,18.00258708000183,-7.940511430241801,-2.795480483936811,4.327410142340365,9.46535321316128
1797,18.012603044509888,-7.605628663321024,-2.2720938927364016,4.751371949204312,9.25113687183505
1798,18.023870944976807,-7.19712141859967,-1.6425426056000232,5.158577621000254,9.00596613346742
1799,18.032063961029053,-6.721629954834,-0.9202846375068046,5.534859680740353,8.755678428839078
1800,18.042444944381717,-6.195631989154385,-0.11904609638221986,5.8687832128944954,8.534790221092093
1801,18.061290979385376,-5.642858494286035,0.7470468028844913,6.1533013632367854,8.382305683942079
1802,18.06319999694824,-5.090366819376642,1.6628938334758578,6.386593744184783,8.334604364364449
1803,18.07191777229309,-4.56397217649686,2.6117070219792478,6.571852574963731,8.41665621631005
1804,18.082628965377808,-4.083812072984504,3.5744913849258695,6.716082057615139,8.634828771491838
1805,18.092081785202023,-3.6607025559467328,4.529956176621183,6.828178875944173,8.974701829426623
1806,18.102025985717773,-3.293678932755736,5.454901974370273,6.9166360614254545,9.404473981477045
1807,18.11314606666565,-2.968832252082387,6.324961428714419,6.987240418905912,9.881327374767126
1808,18.124468088150024,-2.659412509989966,7.115528475445164,7.041181128060132,10.35767599711983
1809,18.132291078567505,-2.327183175132844,7.802765158362273,7.074020321036347,10.786134115131741
1810,18.14266276359558,-1.9250346431351646,8.364597734881265,7.075888776297384,11.123868734311037
1811,18.15411686897278,-1.400799049583069,8.781565418130494,7.0330208882721506,11.337614916069896
1812,18.16238594055176,-0.7021084492250852,9.037394103780416,6.930437051824081,11.410451620808633
1813,18.17220377922058,0.21794316921558468,9.119331706773599,6.755331617494911,11.35095657931526
1814,18.183143854141235,1.394681439759411,9.018497986444098,6.50054424700479,11.204263374143466
1815,18.192676782608032,2.845794133703255,8.73057382431192,6.167382523301414,11.061558242033716
1816,18.202330827713013,4.566023173603626,8.256991386263628,5.767013970961238,11.058251422172457
1817,18.21321511268616,6.523358628183895,7.6064586799725715,5.319614853810759,11.345074862464125
1818,18.224997997283936,8.657401080096347,6.796393852833574,4.850712863129348,12.027924930968597
1819,18.23268699645996,10.880447391677196,5.853913972952086,4.385163993510968,13.110381668577153
1820,18.242839097976685,13.08183823600452,4.816294528298738,3.9406036564848312,14.48652966703247
1821,18.254283905029297,15.135926550842978,3.7307951854523203,3.522767055594546,15.982020929666245
1822,18.26262879371643,16.913243034998754,2.6533362005467467,3.124220127397769,17.402836962935183
1823,18.27353310585022,18.293178575666673,1.6453025451641337,2.726552957080056,18.568292702726218
1824,18.28254199028015,19.17562462735535,0.7682407493028357,2.3050534090363755,19.3289431919243
1825,18.292569875717163,19.4892908667918,0.07709152605696218,1.8346597159059916,19.57560670495227
1826,18.30254483222961,19.195852719638093,-0.3868408137149621,1.296166142490549,19.24345224012915
1827,18.313831090927124,18.290904425108945,-0.6019822225381417,0.6818233497498479,18.31350458991905
1828,18.324869871139526,16.803850162257,-0.570651261264339,-0.00033998505283769007,16.813536904921495
1829,18.3328378200531,14.798609717688896,-0.3204377180746048,-0.7239874070545869,14.819773536502328
1830,18.343029975891117,12.375421162818151,0.09781616336753139,-1.4443327511626995,12.459803933249693
1831,18.354408025741577,9.672007961193756,0.6155157526345657,-2.101164662307646,9.916727816233896
1832,18.36288809776306,6.861083788224336,1.154710027979076,-2.625614559850942,7.436509787168407
1833,18.37381386756897,4.141206811798692,1.6383516462444903,-2.950498866475499,5.342212419579843
1834,18.383835077285767,1.7192226560202983,2.0012505958336138,-3.023281463400091,4.012600315909433
1835,18.39278292655945,-0.21534384995939124,2.2002444864370614,-2.8202176905864516,3.5834447946227383
1836,18.40328693389893,-1.5203027654584704,2.2212394015318315,-2.3589343379050924,3.579077561065965
1837,18.41282796859741,-2.127481921737447,2.0803697235182104,-1.7039423340586666,3.4289265071809565
1838,18.4239981174469,-2.0566229986134394,1.8182838593840394,-0.9589441788195245,2.907821915079069
1839,18.433531045913696,-1.411115884469016,1.4896516567098579,-0.2451031053038223,2.0664911395814825
1840,18.44332790374756,-0.3578901126949936,1.1514182809276883,0.327708558160514,1.249496814526132
1841,18.45509505271912,0.9011901842953046,0.8523646228018804,0.6860823776235456,1.4175253886121315
1842,18.4637668132782,2.159382243045643,0.6251631956436581,0.8065420326888416,2.3883615185440568
1843,18.4742329120636,3.2324358118028163,0.4816872550799952,0.7148214867679961,3.345389909573627
1844,18.48395609855652,3.981139721002771,0.4125143643774439,0.4736729462981114,4.030385544711384
1845,18.49300098419189,4.326902791027181,0.3913506262072722,0.16449380195219543,4.34767768889465
1846,18.50367903709412,4.257697871783233,0.38374441627719147,-0.1317385076495418,4.2769856182607295
1847,18.51297092437744,3.8227268540562034,0.3574446997136271,-0.34975751568355823,3.8552999408415602
1848,18.52594876289368,3.11701142820716,0.2907764800072662,-0.44901671544360205,3.1625823650376628
1849,18.533232927322388,2.2599467564960753,0.17661168469705987,-0.41634507110742097,2.30475470443258
1850,18.54344892501831,1.372855888985569,0.02188598286289559,-0.2638489801622451,1.39815184171852
1851,18.554649114608765,0.5597299785652594,-0.1558869843554002,-0.023839576415048504,0.581521045362707
1852,18.563740968704224,-0.10606114530636114,-0.33351167655948416,0.25821551967594963,0.4349186815333825
1853,18.57456588745117,-0.5874848086921912,-0.48717133729345663,0.5322647249644683,0.9304730247384373
1854,18.584275007247925,-0.8817474137394333,-0.5968258427355561,0.7528821147685419,1.304036451534825
1855,18.59328007698059,-1.0119338975961822,-0.6495635423032393,0.8873335910596666,1.4944242738983384
1856,18.603147983551025,-1.0154363383361937,-0.6416637052282465,0.9205691708002705,1.5133706968382719
1857,18.6132390499115,-0.9326507374199797,-0.578962014784236,0.8561386163100195,1.3921234653974799
1858,18.62474083900452,-0.7987227632359919,-0.47521381785095435,0.713291095409747,1.1715675021007774
1859,18.633851766586304,-0.6396924121088842,-0.348776617131981,0.5213996355740786,0.8959403388309363
1860,18.643903970718384,-0.4727376846464292,-0.21860315043500828,0.31322860134228886,0.607766741903359
1861,18.654850959777832,-0.308946715635579,-0.10069466998644644,0.11859547101459046,0.345908044732792
1862,18.663585901260376,-0.1566029110909782,-0.005814872050202884,-0.04028593756894375,0.1618061842604846
1863,18.67489790916443,-0.023362094768215852,0.06124474593119455,-0.15106105404678574,0.16466981637768832
1864,18.684128046035767,0.08340370151946068,0.10100893683864764,-0.21108070420337433,0.24842311976829692
1865,18.69346594810486,0.1578400395024103,0.11776129553757109,-0.2254265495231383,0.2993298014343335
1866,18.7034649848938,0.19745326476632785,0.11770624154651008,-0.20402240846336478,0.30735597313388757
1867,18.71433997154236,0.20439275018790742,0.10737289691716309,-0.1587339736225349,0.28018174405867285
1868,18.727139949798584,0.1853475071195767,0.09254202713911366,-0.10108426951619252,0.23051194052820828
1869,18.73356986045837,0.14992230424157146,0.07772251875487837,-0.04081678844987074,0.17373398472971902
1870,18.743962049484253,0.10805553647028285,0.06602236944830073,0.014791927653899823,0.12749020885215753
1871,18.755970001220703,0.0674438820935877,0.05919974402989387,0.06112394849294168,0.10857911403408348
1872,18.763442993164062,0.03190007465142576,0.05774698874492779,0.09614776356751818,0.11660498235885433
1873,18.77521586418152,0.0011377488120797767,0.06098434413515041,0.12018716024296075,0.13477884919089111
1874,18.784187078475952,-0.028135332904935823,0.06722094681039575,0.13552004173228419,0.15386986176271708
1875,18.79355406761169,-0.06044168737339737,0.07403515713110675,0.1457870140081316,0.17432227487437837
1876,18.803607940673828,-0.09987581806357301,0.07866283704554602,0.1552773193127602,0.2006839975156937
1877,18.813647031784058,-0.14914353911216033,0.07842455323000025,0.16823952114045707,0.23811497702117762
1878,18.826047897338867,-0.20941577658384283,0.0711226963730151,0.18834898880896403,0.2904974130813239
1879,18.83387589454651,-0.2806847807680461,0.05538960966412047,0.21835751746760212,0.3599054882162314
1880,18.844162940979004,-0.36214653213480824,0.031008092408768187,0.25983023585384,0.4467923052112251
1881,18.855664014816284,-0.4522724859654922,-0.000784025438847876,0.3128371322211923,0.5499255290979632
1882,18.863943815231323,-0.5485378750380067,-0.03703308003943708,0.3755564485130892,0.6658137092221696
1883,18.873718976974487,-0.6470494738157627,-0.07290902329036113,0.44390838552265904,0.7880630697981879
1884,18.884907007217407,-0.7424236349827671,-0.10170197187053996,0.5114448734493959,0.9072552030388417
1885,18.894232034683228,-0.8281708526905758,-0.11500518764175569,0.569687952213675,1.0117497305797325
1886,18.903798818588257,-0.8976203344665191,-0.10306990568066698,0.6089551078106059,1.0895742258485348
1887,18.914880990982056,-0.9451989901766116,-0.055288652444890195,0.6195290975155651,1.131492054231274
1888,18.926086902618408,-0.9677652598856072,0.039227529654788346,0.5929194743778731,1.1356328193658403
1889,18.93409490585327,-0.9657057845287479,0.19098530914084422,0.5229687830544489,1.1147014840886145
1890,18.944435834884644,-0.9435817625068893,0.4093494725634201,0.4066473388693842,1.106017898333074
1891,18.95641779899597,-0.9102001308969317,0.7016864737017394,0.24448387887633866,1.1749895968438162
1892,18.96504497528076,-0.8780550765380112,1.0724551961248199,0.04065391585747754,1.3866483353770145
1893,18.974130868911743,-0.8621572434662519,1.5223505080417608,-0.19720771469849002,1.7606126957775052
1894,18.98417592048645,-0.878371390448586,2.0476268998509792,-0.4583903980513757,2.2747382217691805
1895,18.99399209022522,-0.9415025030226328,2.639708200870495,-0.72962364848711,2.8960036286877253
1896,19.004085779190063,-1.0634394739844977,3.285188809682444,-0.9956907349262563,3.5937124355892984
1897,19.01490092277527,-1.2516368138443132,3.9663738202803183,-1.2401347523554125,4.340120989094089
1898,19.024686098098755,-1.5081330284414192,4.662500061502052,-1.4460564602332824,5.109251544127078
1899,19.034828901290894,-1.8292666846187868,5.351586681823932,-1.5969610742611655,5.8767321947862206
1900,19.044848918914795,-2.2062491179112502,6.012484807883703,-1.6775999182221826,6.620562681595543
1901,19.05758309364319,-2.6266390398636124,6.626421283164838,-1.6748645140952407,7.322148783539642
1902,19.06678080558777,-3.076470068753757,7.177526033741675,-1.578875608968909,7.967082040344143
1903,19.07466197013855,-3.542470850491186,7.652450450893325,-1.3842680030171117,8.545483926269723
1904,19.084392786026,-4.0137414407121,8.039677865496182,-1.091494626246431,9.051955647978161
1905,19.09433388710022,-4.482497639621856,8.32909381840284,-0.7080293324801665,9.485140719073398
1906,19.10418200492859,-4.943893695182458,8.51204309052259,-0.24943480596021902,9.846785270665885
1907,19.115329027175903,-5.3951935668193824,8.581848514557691,0.25995267468942773,10.140207736695707
1908,19.125226974487305,-5.834526879711108,8.534673382189332,0.7873738530225737,10.368332133720743
1909,19.13493299484253,-6.259258981051843,8.370537198973791,1.2938222220156066,10.531770598216786
1910,19.144832849502563,-6.664007521168934,8.094131734121293,1.73836192251899,10.627599303002038
1911,19.15618896484375,-7.03888061021829,7.714891181179531,2.083938116802171,10.649327878181312
1912,19.16535210609436,-7.3692416616918415,7.245837492540148,2.303173147720611,10.588318572138661
1913,19.176586866378784,-7.638207730969639,6.70125486188672,2.3825556630920617,10.436743052942179
1914,19.18520498275757,-7.8317335775826695,6.093999023227167,2.3241773934717616,10.191892634915984
1915,19.194618940353397,-7.944510754390483,5.433656346438262,2.1450845701848773,9.861098327826372
1916,19.204435110092163,-7.984338561627105,4.726433476997198,1.8747359354794453,9.465910970791105
1917,19.214651823043823,-7.973270200177709,3.976707025094789,1.55104332726093,9.043946696631997
1918,19.227138996124268,-7.944918232906337,3.189274670985451,1.215474500037824,8.646998144720463
1919,19.235295057296756,-7.9382771549729325,2.3712658631592007,0.9079230222647523,8.334474800328312
1920,19.24503898620605,-7.989294107507737,1.5333646630317705,0.6622683189001568,8.162023453305634
1921,19.256441831588745,-8.122155599781946,0.6905682901911387,0.5033912640014353,8.166988362619339
1922,19.266145944595337,-8.34254699245677,-0.13745076034659992,0.4457682533821328,8.355578517888075
1923,19.27578711509705,-8.634716198596808,-0.9267039352401453,0.4930747461127374,8.698288723602696
1924,19.285818815231323,-8.9630990444798,-1.650212478477943,0.6381392256525449,9.13605863469557
1925,19.294578790664676,-9.277970003211726,-2.280083457978836,0.8631498314360542,9.59294196726705
1926,19.30471396446228,-9.52360753972383,-2.7898445675278465,1.1405792931497727,9.989156841576333
1927,19.315521955490112,-9.647090717742858,-3.15667215046785,1.4353612770526658,10.251399922818443
1928,19.325127840042114,-9.60602960378299,-3.363398590908111,1.7085528162201797,10.320242611290286
1929,19.33496403694153,-9.374090693386133,-3.4002672355365493,1.92235016011851,10.155334742833421
1930,19.34535002708435,-8.943854416959994,-3.2663070393485314,2.04585842988264,9.73893373127646
1931,19.35691809654236,-8.327052279573364,-2.970077174093648,2.0603821476162785,9.077793381710993
1932,19.3670117855072,-7.552487247667187,-2.529492581513867,1.9626736886627743,8.203077736696045
1933,19.37486696243286,-6.66211023201182,-1.9705335412060045,1.765153579810834,7.168157527622664
1934,19.385469913482662,-5.705915538021943,-1.324859234227403,1.49330891233552,6.045055469159778
1935,19.394932985305783,-4.736410032779785,-0.6265845302617499,1.1812960087815938,4.921549393488159
1936,19.404916048049927,-3.803322516600104,0.09137654049672285,0.8668092811284472,3.901918780200443
1937,19.415875911712646,-2.9490420507991475,0.8009459760626481,0.5859899676964067,3.1115506931742933
1938,19.42539477348328,-2.2050764035143615,1.4819817007394382,0.36897840981478425,2.682308105638097
1939,19.43565797805786,-1.5896157742699863,2.1242328027819117,0.236614941027084,2.663687282798023
1940,19.445416927337646,-1.1061530046205608,2.727565212674096,0.1986265019416055,2.950023550125412
1941,19.45730400085449,-0.7431112230385395,3.3001903529847842,0.2534508428954225,3.392301281652924
1942,19.46697688102722,-0.4744838763505657,3.855157019678267,0.3896786370774034,3.9037443609291045
1943,19.475026845932007,-0.26150246638228797,4.405811755546487,0.5888457841726467,4.45267336807603
1944,19.486326932907104,-0.05532278874820561,4.961116485743373,0.8290064056371954,5.030207651445123
1945,19.49512791633606,0.19930017510983478,5.52169043869471,1.0883587043864382,5.631457229703971
1946,19.50514388084412,0.5594251380771995,6.077310648162993,1.3482966043372473,6.250165192429344
1947,19.5166449546814,1.0786340481915948,6.606368452472887,1.5955215642801939,6.881369384201832
1948,19.525665998458862,1.801457594783081,7.077449160668871,1.8231064421164136,7.5272340993847475
1949,19.53543591499329,2.75812513410464,7.452847208442892,2.0305583022348883,8.202155374445779
1950,19.545737981796265,3.9602994384577874,7.693520543512567,2.222959739507765,8.933967763495199
1951,19.5572030544281,5.398326067395892,7.76477430822082,2.4092469947250663,9.759001766017048
1952,19.56729102134705,7.040257891603645,7.641861921620152,2.599717057286855,10.710826932937703
1953,19.57560396194458,8.832602738195552,7.3146713824529055,2.80298954295723,11.805762954675256
1954,19.586435079574585,10.702501939539381,6.790727975944622,3.0228588951703292,13.030549110042584
1955,19.595353841781616,12.560991888299053,6.095968033056877,3.25568235173341,14.336624813858885
1956,19.60539197921753,14.307167244904976,5.273124146926032,3.4890001746314607,15.642058530166501
1957,19.61628293991089,15.833343566378861,4.377964533141416,3.701865368139864,16.83939277849021
1958,19.62566590309143,17.031503855916224,3.4739114523673984,3.8669612896183567,17.807121440266123
1959,19.635792016983032,17.80125231117969,2.625692097184322,3.9541774122207087,18.423201726160766
1960,19.646036863327023,18.059160597837852,1.8926767275476937,3.934998131314458,18.579551043740217
1961,19.65746378898621,17.7488623347126,1.3225261567973734,3.786938873636538,18.196485804810017
1962,19.667678117752075,16.850704717336914,0.945814890969627,3.4974256228445495,17.235799989156
1963,19.67537808418274,15.389423262130048,0.772376461635261,3.0668346513762126,15.711027608605349
1964,19.685666799545288,13.438320229098428,0.7900416212103432,2.5105590186106133,13.6936307431217
1965,19.69566297531128,11.118766303815487,0.9661125542742124,1.8597790676336068,11.314553272966506
1966,19.70561790466309,8.59431247703751,1.2514765477506158,1.1603615124540725,8.762125275417896
1967,19.71654677391052,6.059098202990411,1.58691884536526,0.46941655283998507,6.281029720940445
1968,19.72573494911194,3.7205040554042923,1.9109911852419286,-0.1505231281316458,4.18529508499158
1969,19.736253023147583,1.7762492966973957,2.1685407038233397,-0.6395288013575703,2.8751743313967015
1970,19.74611878395081,0.3869629318936042,2.318521390763123,-0.9505013317782419,2.5354949283715933
1971,19.75830888748169,-0.35225958250560635,2.339376806715312,-1.060691498741258,2.5926505959667088
1972,19.76891779899597,-0.4339301178782907,2.2307206977776946,-0.980484168813407,2.4750271481317916
1973,19.775768995285038,0.05507801924059787,2.0109051279404353,-0.7533276185776445,2.1480864793328203
1974,19.785846948623657,0.9467125007974114,1.7108101218909537,-0.4442291447885916,2.0051123074307413
1975,19.795784950256348,2.021838792844523,1.3653345111223556,-0.1210643476810975,2.4426680101463174
1976,19.806867837905884,3.04943335580302,1.005314002152964,0.16343028624961856,3.215028692387132
1977,19.815809965133667,3.826809502040872,0.6523918433535116,0.38235534190069387,3.900805261694628
1978,19.82817792892456,4.214106588937056,0.31787085768536016,0.5352246272371914,4.259835868515303
1979,19.83639979362488,4.156897880701863,0.0052395407582265,0.6399671092939866,4.20587509851982
1980,19.84645390510559,3.6915244600301715,-0.2849351099020743,0.7208300967666993,3.7720202656216797
1981,19.85846996307373,2.9306617112823634,-0.549917130157894,0.7969765504861486,3.086479959118861
1982,19.869098901748657,2.032008380752443,-0.7817496283400918,0.8751436028283971,2.3465009836838986
1983,19.87614393234253,1.1584643330681348,-0.9675557512096902,0.9481312572534683,1.7824580285860838
1984,19.88612008094788,0.44087486650647173,-1.093182481900017,0.9995405318470715,1.5454772277375384
1985,19.896077871322632,-0.046700404927061574,-1.1486909270254735,1.0128683249105146,1.5321794990333297
1986,19.906872987747192,-0.2936397203133312,-1.1329598134567211,0.9799942435453112,1.526502846913666
1987,19.9164559841156,-0.34187103295517685,-1.054977698872746,0.9041662539825638,1.4308635026212444
1988,19.926492929458615,-0.2633362057267838,-0.9315154973702384,0.7971806194663117,1.2540191462414736
1989,19.936667919158936,-0.1342934377247186,-0.7828052633581363,0.6743140253377222,1.041882053077164
1990,19.94873881340027,-0.01438459412351538,-0.6280795355363527,0.5500051273309323,0.8349829097640106
1991,19.95892596244812,0.06446083067120063,-0.48217962397312625,0.4349659842276086,0.6525701463450339
1992,19.96952199935913,0.09812354184352215,-0.35390652319950494,0.3344598205320422,0.49673074011722396
1993,19.97624897956848,0.10187935427400985,-0.24618012489405963,0.24788163552396758,0.36390845270504657
1994,19.98738503456116,0.0981702680102494,-0.1574839927659849,0.17013537855907324,0.2517630960569085
1995,19.99614691734314,0.10543213050140125,-0.08396831842081039,0.09473846888420982,0.16474826289526545
1996,20.00644397735596,0.13127513267020907,-0.021702231646234544,0.017502386782834035,0.13420313282149468
1997,20.01710295677185,0.1710452365045924,0.0315082246559727,-0.060866222817242896,0.18426594430854948
1998,20.02673602104187,0.2109044851427793,0.07533226154327734,-0.13431149047521518,0.261142160434196
1999,20.037261962890625,0.23351590258843707,0.10738130696104402,-0.1930389603860052,0.32144122646801865
2000,20.04825592041016,0.2241258810625839,0.12460659474594679,-0.22633016334194567,0.342030052560666
2001,20.058109998703003,0.1751372503405726,0.12496035648633252,-0.22562174368134666,0.3117584295121128
2002,20.069875955581665,0.0880361561169963,0.10866808291642065,-0.18711603788728887,0.23360549793021468
2003,20.076404809951782,-0.027468106426343588,0.0787351827599819,-0.11331455531248195,0.14069084661257186
2004,20.08705997467041,-0.15636246213169275,0.04063641043830529,-0.013011043664478032,0.16207968618687046
2005,20.09739708900452,-0.2821161815507555,0.0013520485999586897,0.1003553838829232,0.2994370902251162
2006,20.106587886810303,-0.3901609481674796,-0.031979278582980254,0.21158057635396463,0.44498829200767787
2007,20.116426944732662,-0.47026824846596793,-0.05346090181380544,0.306985062346853,0.5641366164698901
2008,20.12749290466309,-0.5175233150648996,-0.05954118741867892,0.3771224862703518,0.6431150008246747
2009,20.136555910110477,-0.532028474334261,-0.04952535629888685,0.4181063051019408,0.6784688207905875
2010,20.14903807640076,-0.5177576689071907,-0.025363127647928984,0.43130213840684534,0.674342514268981
2011,20.15801191329956,-0.4810722989773355,0.009169521589343177,0.4217720408912315,0.6398486472964298
2012,20.169612884521484,-0.4292933770949379,0.0495474538887107,0.3962121802745881,0.5862864876511936
2013,20.176584005355835,-0.36953198103919066,0.09143574103080662,0.361088824991519,0.5246899267971107
2014,20.1867458820343,-0.3078681371402232,0.13125520838349744,0.3214279064158254,0.46403299302619344
2015,20.197718858718872,-0.24895134529508892,0.1663599916036617,0.2804196504346487,0.41022871606031625
2016,20.20687508583069,-0.19605040840007779,0.1949387339464953,0.23971591208646925,0.36592429699863827
2017,20.21774411201477,-0.15143712511034657,0.21578324198715074,0.20008899021946958,0.3309550035748349
2018,20.227482080459595,-0.11684038475236423,0.22809078250432355,0.16207577535744436,0.3032253906423931
2019,20.23723006248474,-0.09370701383108833,0.23146986079954252,0.12635148800200058,0.2798642517722102
2020,20.24950909614563,-0.08319045602520332,0.22623307847787816,0.09376329690840543,0.25863799724401065
2021,20.258146047592163,-0.08601323244963613,0.2139076486842126,0.06510385366789119,0.23956892554013312
2022,20.270731925964355,-0.10242771437921623,0.1977898776896878,0.04078310589888814,0.22644101685916332
2023,20.276904821395878,-0.13240072814147547,0.18336498712646976,0.020560490706536837,0.22710219086212466
2024,20.2873809337616,-0.17598402577926814,0.1784527954498609,0.0034235797287555806,0.25065414106195644
2025,20.29809188842773,-0.2337131269928155,0.1929880687552334,-0.012414600819184978,0.30334854989621146
2026,20.30701184272766,-0.3068551289781904,0.23842116782620346,-0.029491812834103785,0.38971077797781567
2027,20.317044973373413,-0.39740552509804666,0.3268085349971294,-0.05111590727283121,0.5170568691176521
2028,20.32774901390076,-0.5078469052906016,0.46970145670041735,-0.0814152755153501,0.6965316825004988
2029,20.337695837020878,-0.6407475855942768,0.6769457072525042,-0.12530272159888084,0.9404859015703398
2030,20.349923849105835,-0.798295509651789,0.9555230509049317,-0.1881508741904826,1.2592461129578765
2031,20.35817289352417,-0.9818726530178676,1.308596788709043,-0.2749924027206632,1.6589515615948673
2032,20.371052026748657,-1.191769787787447,1.7349156982021252,-0.38921657622177963,2.1404992992656897
2033,20.37712597846985,-1.4270931654595957,2.228657091598079,-0.530977778239019,2.6991563007383514
2034,20.38823199272156,-1.6858416766023854,2.7796967545387563,-0.6957224993370285,3.324576063477357
2035,20.398531913757324,-1.9650733682132673,3.374245432479553,-0.8732547256047754,4.001202243933845
2036,20.4078209400177,-2.261044604566522,3.9957835275353437,-1.04759503486766,4.7091468505284
2037,20.417706966400143,-2.569214214284943,4.62620869426606,-1.1976883775866902,5.425599138490874
2038,20.4282968044281,-2.8841107479561794,5.247049709855787,-1.2989553888869902,6.12673735086568
2039,20.43791389465332,-3.1992299068456855,5.840504678417356,-1.3257637285087729,6.7900085684261375
2040,20.44987893104553,-3.507193712703358,6.390073294617422,-1.254837221285985,7.396489768865597
2041,20.459008932113647,-3.8002824454103585,6.8808063239643005,-1.069217794871706,7.9328978958304734
2042,20.47162699699402,-4.071296407464891,7.299478588205165,-0.7619737847338882,8.392761532756897
2043,20.47728705406189,-4.314664786554549,7.634943829635144,-0.3388739902206455,8.776305320763724
2044,20.487375020980835,-4.527713297854191,7.878605409938709,0.18039322907358968,9.088737680788062
2045,20.49891996383667,-4.711882900303304,8.024722251361032,0.7626662817068766,9.337005276581573
2046,20.507417917251587,-4.873473384173412,8.070353966402616,1.3637051264505753,9.525809553060814
2047,20.51798176765442,-5.023316418928276,8.015007502329453,1.9328579717940007,9.654532254138438
2048,20.52783179283142,-5.174877402108014,7.860243819456496,2.419962289059079,9.716944298935767
2049,20.53774380683899,-5.340944587429861,7.609421442669044,2.783538925093948,9.704487246921444
2050,20.550265073776245,-5.53027506224717,7.267398810935836,2.998238238096522,9.611891607466694
2051,20.558767080307007,-5.746351993721639,6.83984122254199,3.059163089016942,9.442587992205159
2052,20.57186889648437,-5.989488485041646,6.332253493024779,2.9818565172349545,9.212104803015842
2053,20.57751202583313,-6.26119098659618,5.74957075431546,2.79863631657497,8.949438064033139
2054,20.588621854782104,-6.567946500458342,5.097033182912052,2.5529430975191962,8.696849254745104
2055,20.599363088607788,-6.921799758431437,4.38199880590023,2.2930308229403105,8.507127352149306
2056,20.60766005516052,-7.336761309204203,3.615520378444398,2.065726831901903,8.436070261633787
2057,20.61854577064514,-7.822003442533428,2.812916743122291,1.9108892846040824,8.529228354121916
2058,20.628456830978397,-8.374161189910165,1.9936143828165287,1.857281046808415,8.806279965388581
2059,20.638102769851685,-8.97153330407302,1.180883656276643,1.920264242738159,9.250422195645527
2060,20.650962114334103,-9.572452259872449,0.40150196272384775,2.101019061525611,9.808533386317356
2061,20.659487009048465,-10.118707263205263,-0.31515378863666366,2.386613640820927,10.4011289415855
2062,20.672420978546143,-10.543206368406118,-0.9388703533482121,2.75070999230409,10.936502344394988
2063,20.67758011817932,-10.779832844136735,-1.4409835140463318,3.1554990002078642,11.324239646686891
2064,20.687846899032596,-10.773218734844841,-1.7970109310562083,3.5557049119646456,11.486275619891632
2065,20.69779896736145,-10.48679402005764,-1.989382251505234,3.9049149870850264,11.365687467904525
2066,20.70882678031921,-9.90826874344516,-2.010196114806421,4.163376776939136,10.93381836775567
2067,20.718302965164185,-9.052075264797766,-1.8636249524207646,4.305216633054928,10.195491887122547
2068,20.728540897369385,-7.95839252334979,-1.5672085952349608,4.322642155782429,9.191158226449785
2069,20.738521814346317,-6.688776235517731,-1.1513199545582158,4.225849257659212,7.995190248833958
2070,20.751611948013306,-5.319193813107763,-0.6566247846962782,4.039311590867347,6.711260467110231
2071,20.760634899139404,-3.931830870063916,-0.12993360805673304,3.796277401348392,5.466982608466823
2072,20.772999048233032,-2.6069974662098443,0.3809150816839164,3.5331379119398587,4.407334295587931
2073,20.778048992156982,-1.4160076183470078,0.8324325568003299,3.2845345358575666,3.672354647100274
2074,20.78911280632019,-0.41546459663380264,1.1902977454547792,3.0793642660797524,3.3274470449730242
2075,20.79978489875793,0.35676281069850946,1.4328269773941318,2.937645731065749,3.287861811496147
2076,20.808023929595947,0.8835102097779599,1.5526532728775277,2.8685030581433026,3.3792946410658944
2077,20.81810593605041,1.16794323258934,1.556576698861238,2.8697701159453013,3.4673625325831874
2078,20.82874703407288,1.231024758808969,1.463737443456782,2.9294665055878815,3.4985315873290825
2079,20.83931803703308,1.1076524074213665,1.3023623491138065,3.0288383917965396,3.4780603139790762
2080,20.84832787513733,0.8425991836929315,1.1055638750420254,3.1462355155262105,3.4396282917368284
2081,20.859352827072144,0.4871227463278581,0.906943910312268,3.2609380931533263,3.419583757392258
2082,20.873204946517944,0.09649844315541392,0.7368220438282592,3.3560616666217267,3.4373490634456187
2083,20.87812685966492,-0.2718150268009093,0.6196831610318195,3.419887197444231,3.4861897642130906
2084,20.88876986503601,-0.5599091560161482,0.573037482388082,3.445486585006309,3.537406963677041
2085,20.8987410068512,-0.711537219410607,0.6074705159231508,3.429207196369595,3.5545418323541416
2086,20.908212900161743,-0.6748742990159771,0.7273623560609155,3.3690444270921236,3.5121178323352544
2087,20.920202016830444,-0.40595196826484603,0.9316633667849044,3.263839900187981,3.418397946934525
2088,20.92864203453064,0.12743035949722722,1.2142561829622998,3.113672371982633,3.344489828723018
2089,20.93885397911072,0.9417100246037593,1.5637612744163356,2.9211781653080617,3.4446260997786085
2090,20.94895482063293,2.0340523132718706,1.9630219098492991,2.6932100341146716,3.904382680979285
2091,20.960120916366577,3.3800453177630794,2.3887658468073623,2.44224492946184,4.805774538665696
2092,20.973976850509644,4.933340583873609,2.811978916946032,2.1870667003774216,6.085091248103282
2093,20.9783239364624,6.627798601029609,3.199380115422784,1.952311818136206,7.614149253462729
2094,20.98845076560974,8.382336694504238,3.5161854621850694,1.7665152651582343,9.260005661259118
2095,20.99852204322815,10.108203759018588,3.7301235579655048,1.6584732725195983,10.90138241633549
2096,21.00853800773621,11.71777949564236,3.8163345744974166,1.6521204205569826,12.433835601978267
2097,21.019450902938843,13.133196476960324,3.7623249260619316,1.760646955585846,13.774462466968492
2098,21.029319047927856,14.292459602379735,3.5717505207143287,1.9811241816434677,14.864610869140579
2099,21.039122819900516,15.15102253542957,3.265792885807049,2.2912617444441965,15.667442912729443
2100,21.04881978034973,15.678409885893162,2.881433021536515,2.6497759294137087,16.159718601627127
2101,21.060706853866577,15.851794087598892,2.466751629294429,3.000979511585033,16.320849163729658
2102,21.074034929275516,15.650004834857029,2.074068039784241,3.282942953018031,16.124581358828316
2103,21.078591108322144,15.051338863030878,1.752115181038668,3.437653519178935,15.538023390873535
2104,21.08867692947388,14.03702787704982,1.5385756587713464,3.4213233579750546,14.529653134148218
2105,21.100652933120728,12.600200692004877,1.4541894132547637,3.213068914615168,13.084476916502574
2106,21.10876202583313,10.758345643262732,1.4993340865542941,2.820334326853652,11.222490338523034
2107,21.11926293373108,8.566010917842519,1.6536114888193798,2.2798005890648985,9.017120644998233
2108,21.128875017166138,6.1239743651440035,1.8786217453393663,1.6533026312169539,6.615564320403191
2109,21.139139890670776,3.5814315676081776,2.1237155357704225,1.0192246937809655,4.286681551823732
2110,21.148932933807373,1.1287261469390226,2.3340847557903155,0.4604419561301571,2.63324536588627
2111,21.15989398956299,-1.0206121271109865,2.460233473089816,0.04994048772556526,2.6639992320629258
2112,21.17409586906433,-2.6584677799995142,2.4675623045714623,-0.1648609779283933,3.6309081241861625
2113,21.17959809303284,-3.6189856830134706,2.343936206298629,-0.1770465373267001,4.315372497181843
2114,21.189071893692017,-3.8161117846854062,2.102065831766037,-0.028533697455692404,4.3568571340111175
2115,21.198924779891968,-3.2686652612275404,1.7745570157370785,0.1975004591491257,3.724544485359452
2116,21.208940982818604,-2.101612744532926,1.4032715640800202,0.40358108409093146,2.5590671937201677
2117,21.21894478797913,-0.5234671906340245,1.02779631392386,0.5130441325904718,1.262377694896128
2118,21.230073928833008,1.2103447026684941,0.677400080181991,0.4944328155671182,1.4725043215616995
2119,21.23901677131653,2.838308349753849,0.3681120825744482,0.36481190814626135,2.8852363026180425
2120,21.24985384941101,4.132569033861457,0.10408406211470567,0.17473846060264064,4.137571007394398
2121,21.259805917739868,4.9332350320625205,-0.11852313851033444,-0.01579701666049187,4.9346838968333735
2122,21.27423501014709,5.170772925553681,-0.30664257671020484,-0.1593119527752137,5.182306688704124
2123,21.27926707267761,4.87045249781979,-0.4658116189388155,-0.2315396861244451,4.898152572563256
2124,21.28911709785461,4.137757145564053,-0.5976833229025034,-0.22982143256672807,4.187012949706411
2125,21.299282789230347,3.1298414357093853,-0.7004172339722217,-0.16581774551243106,3.21153969912494
2126,21.309282064437863,2.021215986291915,-0.7711931270324186,-0.05891711678729871,2.16414512662034
2127,21.32041382789612,0.9712159556145259,-0.808931728971463,0.0682700192850005,1.265816641583674
2128,21.329581022262573,0.09879619598984353,-0.8155274760682631,0.19375990714453828,0.8440311926587756
2129,21.33954787254333,-0.5315968217929078,-0.7951757988686072,0.3002903675473987,1.002533808351818
2130,21.349425077438354,-0.9113154982875405,-0.7527900770397157,0.37879220458559626,1.2412382413394076
2131,21.361113786697388,-1.076947608827245,-0.6930737106684484,0.4293177287873336,1.3507335165862908
2132,21.375253915786743,-1.0916787582827598,-0.6209616754189864,0.4584963236165928,1.3370021661892977
2133,21.379304885864254,-1.0241419193544594,-0.5424687259461628,0.4749570252881753,1.252486792536864
2134,21.389291048049927,-0.9305716360021803,-0.46430081209918334,0.48543347859920216,1.147686575678507
2135,21.3993079662323,-0.8445944006434631,-0.3919684259340738,0.4930276860466742,1.0535915943742453
2136,21.4093029499054,-0.776046999645205,-0.32797934233987264,0.49700103064051665,0.9781765787002651
2137,21.419343948364254,-0.7170932957499669,-0.2716207195064543,0.49311361113436136,0.9116806697307581
2138,21.430190801620483,-0.6520034233864577,-0.22021466346230517,0.4747594931341983,0.8360619226065241
2139,21.439873933792114,-0.5667077565514668,-0.17076929390761117,0.4355106141191992,0.7348396614825459
2140,21.44997000694275,-0.4552851558698402,-0.12128973529860938,0.3724870569976198,0.6006183319504821
2141,21.460745096206665,-0.32223430255499497,-0.07157857420798659,0.28885819368611193,0.4386313874865268
2142,21.474978923797607,-0.1809173180078011,-0.023511407080043435,0.19403450691464486,0.2663329722201679
2143,21.47934889793396,-0.049436149951240516,0.019278080169324124,0.10142034098351525,0.11446249543946231
2144,21.489609956741333,0.054504792410537434,0.052380147653939925,0.02484687353080344,0.0795727301795035
2145,21.500606775283813,0.11820453881071935,0.07214612685557398,-0.024837058792324476,0.14069206127272715
2146,21.509780883789062,0.13681229287908675,0.07726324274012075,-0.042056380521298786,0.16265285519813083
2147,21.520214796066284,0.11384016880549212,0.06961273882840217,-0.027439030454801554,0.13622928405138815
2148,21.52982306480408,0.059512108197640454,0.05398763579716033,0.012547597884674232,0.08132526085891131
2149,21.540018796920776,-0.012312226614769573,0.03688946570949209,0.06716986879497557,0.07761581590423092
2150,21.54970097541809,-0.0876157275621521,0.02496701800985461,0.1239434114624994,0.15382404542044814
2151,21.56210684776306,-0.15512369035808546,0.023573582160233916,0.17144769244780877,0.23240779748505622
2152,21.576222896575928,-0.20798571323061002,0.03573911597576049,0.20163534419098336,0.29187694897985816
2153,21.580701112747192,-0.2440814406306928,0.06175137905407635,0.21106072681280708,0.3285355580118916
2154,21.58965492248535,-0.26521434228684065,0.09940114513090874,0.20086431456651482,0.347225730432313
2155,21.600839853286743,-0.2756998232171132,0.14473466140938818,0.17571886257775596,0.357541093303774
2156,21.609884023666385,-0.280883291878371,0.1930110109313666,0.14219413720681348,0.36928017365297094
2157,21.61980390548706,-0.28597371870360827,0.23957535019521609,0.10709276568536773,0.38813164863544947
2158,21.63079285621643,-0.2953425552317418,0.28048312182919033,0.07621336872836963,0.4143748111731568
2159,21.64027690887451,-0.3122345511128728,0.3128604622549926,0.05374755799781065,0.4452649590320272
2160,21.65003490447998,-0.33874226897945053,0.33510318051124105,0.04223730676598856,0.4783559934451956
2161,21.661621809005737,-0.3759103506904997,0.3470546890498538,0.04283481422146917,0.5134105279960015
2162,21.67650008201599,-0.4239018553906592,0.35024666918616054,0.05557845659898598,0.5526793619428615
2163,21.679917097091675,-0.4822130715333739,0.34818572038928636,0.07950804888144253,0.6000702226219785
2164,21.69037079811096,-0.5499386839992498,0.3466044072589531,0.11261596721300268,0.65973443699831
2165,21.70003581047058,-0.6260819362120491,0.3535899678781002,0.15176261589010173,0.734871653975625
2166,21.71006178855896,-0.709897666244537,0.37951782645143733,0.1926950659535515,0.8277196781378988
2167,21.719953775405884,-0.8012481794688688,0.43671849567627846,0.2302068857169437,0.9411253369235271
2168,21.730915784835812,-0.9009230464188644,0.5388167929913265,0.2583620178723025,1.0810813125094492
2169,21.74157190322876,-1.0108216579634415,0.6997399500862468,0.27068044632383814,1.2588345109571537
2170,21.75044798851013,-1.1338627202233844,0.9324871700045119,0.2602761502103951,1.4909462313925812
2171,21.76203989982605,-1.2735330635193272,1.2478195694080743,0.22007620194296976,1.796489264186212
2172,21.77692294120789,-1.4331421974187575,1.6530126988291625,0.14332576588889678,2.1924620442964056
2173,21.78027987480164,-1.6150369782623228,2.150748952795527,0.024541134403096722,2.6897337723989603
2174,21.790187120437626,-1.8201201897489645,2.73820302579372,-0.13907492149113476,3.2908866813345994
2175,21.80033493041992,-2.0479223324789655,3.4064227118898947,-0.34594978939422166,3.9896594878168856
2176,21.810285806655884,-2.2972316024361703,4.14016689093507,-0.5885875561981011,4.771235713244282
2177,21.8226010799408,-2.567018273884992,4.918349020668511,-0.8526455213318858,5.613086877344561
2178,21.83061480522156,-2.8572384990626087,5.7151237032205335,-1.1170708467201793,6.486470385366056
2179,21.84075379371643,-3.1691589535255735,6.50147694056169,-1.3555389064153451,7.358685793548493
2180,21.850990056991577,-3.505069060897283,7.247002491482418,-1.5392393757701626,8.195963158112233
2181,21.862361907958984,-3.867467960467885,7.92151406593364,-1.640801570857789,8.966600432547418
2182,21.877335786819454,-4.257892811791254,8.496377744609996,-1.6387328906375482,9.643833857064573
2183,21.880342960357662,-4.675558362926641,8.945749650661151,-1.5214051255183714,10.207935950690077
2184,21.890487909317017,-5.116049013469751,9.247913821863518,-1.2897217429730712,10.647124012574317
2185,21.90029788017273,-5.57043393822838,9.386669874630607,-0.9580078952507042,10.957056389506581
2186,21.91111779212952,-6.025213317759803,9.352537833479168,-0.5530057787150144,11.139074236329584
2187,21.92033886909485,-6.463353657641156,9.143529838718345,-0.11107002846466704,11.197830815229313
2188,21.93150877952576,-6.866377704349497,8.76531831245776,0.32615221925193977,11.13931430419387
2189,21.940892934799194,-7.217174339875159,8.230769675615392,0.7170739597563974,10.970294889789566
2190,21.95112681388855,-7.503024519676543,7.558911499934816,1.025803938777692,10.699756713473725
2191,21.96232795715332,-7.718332857611193,6.7733695560732965,1.2270249944447293,10.34199147074746
