,time,New_AccelerationX,New_AccelerationY,New_AccelerationZ,new_NetAcceleration
992,10.000625133514404,5.386665701729366,9.109156151334602,0.5706480343593762,10.598043798300834
993,10.011020183563232,4.494266141914296,7.256811628109585,0.48962418412261677,8.549823097696317
994,10.02250623703003,3.5818734665962686,5.451999016396567,0.43057602580360665,6.537545909551406
995,10.031097173690796,2.643920966621433,3.7439811193701487,0.4051584184780919,4.60128960662163
996,10.045549154281616,1.6860769608782746,2.178676530926971,0.4149293350085304,2.7859743892338855
997,10.051155090332031,0.7267075484515884,0.7955402706494981,0.45222993156484276,1.168546145517898
998,10.06129503250122,-0.20477815247698697,-0.37494895147837703,0.5039724419300126,0.6606883003137881
999,10.072641134262083,-1.0719992115801218,-1.313009916138999,0.555767664066996,1.7838315632172868
1000,10.081595182418823,-1.836664665770433,-2.010748813262376,0.5950836428058819,2.78757464948668
1001,10.091641187667848,-2.4634870359325425,-2.472517422019221,0.6131745803160904,3.5437400926622837
1002,10.101720094680786,-2.924431258866721,-2.7139876092772424,0.6055963238854182,4.035439732996979
1003,10.111792087554932,-3.202035651334417,-2.760149311980016,0.5715253767674554,4.265922853630801
1004,10.123156070709229,-3.2915799632398155,-2.6428694789351086,0.5126097566908944,4.2522966147416446
1005,10.131993293762209,-3.201970413303178,-2.398421064679776,0.4319879186767303,4.023885149088036
1006,10.146319150924684,-2.955262944817394,-2.065060128077895,0.33375589936057076,3.6206968122097507
1007,10.15205717086792,-2.5847331818706794,-1.6806585518122752,0.2228530621174192,3.0911360818537528
1008,10.162126064300535,-2.1315256140396652,-1.2804622087524915,0.1051183673391215,2.4887817868392004
1009,10.173477172851562,-1.6402359040518946,-0.8950955910241923,-0.012762709807518475,1.8686178915908718
1010,10.18229627609253,-1.154095628705161,-0.5489594963699139,-0.12360102298259473,1.2839666902740952
1011,10.19242000579834,-0.7105321561761319,-0.2591780280423763,-0.22037327179841537,0.7877776171632297
1012,10.202548027038574,-0.33775941385631053,-0.03522601612214498,-0.2970965955866086,0.4512080240527078
1013,10.212512016296388,-0.052824241183220676,0.1207149159541627,-0.3496901873007331,0.37369201019666637
1014,10.224033117294312,0.1387326603003257,0.2127358419723738,-0.3766047590133219,0.45424050238302466
1015,10.240331172943115,0.2417077892871384,0.24967006536641556,-0.37904576654171435,0.5142309695801506
1016,10.246557235717772,0.2689016811237004,0.24326246617457775,-0.36069669016207456,0.5114556127899718
1017,10.252896070480348,0.2381271849553293,0.20627705815620415,-0.32699268369949513,0.4540693736967136
1018,10.26299214363098,0.16910000537664197,0.1507763126310963,-0.2841520928587854,0.36341535485589793
1019,10.274304151535034,0.08066044280350766,0.0867666097031046,-0.23822986844149496,0.26606018456409597
1020,10.283531188964844,-0.01137304076641526,0.02135687749267573,-0.19438657408754953,0.19588670822188545
1021,10.293195247650146,-0.09554855617026389,-0.04146857694392667,-0.1564527107205042,0.1879537713156355
1022,10.303353071212769,-0.16525668201997654,-0.10044770253911388,-0.12678051908441415,0.23124189048905355
1023,10.31342601776123,-0.21837660976090703,-0.1561414127199099,-0.10632920969609586,0.28874622991726323
1024,10.32629919052124,-0.2562514401352735,-0.20981725108064406,-0.09492025634673196,0.34452566593414924
1025,10.341694116592407,-0.2822601660046869,-0.26245097219090585,-0.09160102984142132,0.39615913820705184
1026,10.34855818748474,-0.300324122355741,-0.3141141413340851,-0.09503747568934669,0.4448532275258873
1027,10.35378122329712,-0.3136940708183222,-0.3638564381623341,-0.10383036413480526,0.4915040408532948
1028,10.363797187805176,-0.324277418438149,-0.40999174401783245,-0.11665040682562469,0.5355897606230705
1029,10.375247955322266,-0.33257872557572926,-0.45054260231445287,-0.13214352958980966,0.5753774045079528
1030,10.383811950683594,-0.3381142122932177,-0.48358143898767014,-0.1486736743743878,0.6085031554067984
1031,10.394029140472412,-0.3400269465533246,-0.5073392817309724,-0.16408865795028962,0.6324053754022048
1032,10.404138088226318,-0.3376184878749733,-0.5201421877557978,-0.175717786496363,0.6445237616485155
1033,10.41432523727417,-0.3306059639095816,-0.5203685863402907,-0.1807065936206487,0.6424473846163236
1034,10.42710828781128,-0.3190744591689919,-0.5066166510626116,-0.17663017204254366,0.624233257127221
1035,10.441296100616457,-0.3032657150658838,-0.47811222557388955,-0.1621984190954797,0.5889564681151847
1036,10.447565078735352,-0.2834325604092577,-0.43517516144514395,-0.13782889323413328,0.5373157742418333
1037,10.454509258270264,-0.25992375312073807,-0.37947772559581744,-0.10589617282020797,0.4719933273656655
1038,10.464535236358644,-0.23347920650760418,-0.31395243446703985,-0.07051484122312061,0.3975563026942515
1039,10.47597312927246,-0.20553575997674575,-0.2424129527586114,-0.036778930192110995,0.31994011627247276
1040,10.484586238861084,-0.17828372369573905,-0.16906394162971905,-0.009524198070262805,0.24588292507426635
1041,10.494763135910034,-0.15430539676887098,-0.09804783066350296,0.008114201646706494,0.18300101868071955
1042,10.504876136779783,-0.1358224338845312,-0.03307394449420944,0.01592091883242752,0.1406950425821487
1043,10.51499319076538,-0.12379060474667965,0.022914848378914828,0.017130908107384563,0.12705381581188727
1044,10.527513027191162,-0.11720647166097987,0.06808060328658803,0.01787159963737795,0.13671766387954626
1045,10.540943145751951,-0.11295994010918087,0.10196633586222907,0.025320960318312363,0.15426675840919254
1046,10.54702615737915,-0.10638438966052892,0.1255455813638509,0.04483291338695088,0.17055591894212407
1047,10.555355072021484,-0.09239918386658529,0.14095201004785593,0.07695357815998756,0.1852752857435854
1048,10.565384149551392,-0.06690196256584326,0.15099427002497315,0.11578995628515922,0.20169892451883595
1049,10.576725006103516,-0.0279305271942178,0.15867084150975108,0.14998553378735463,0.22011862856250303
1050,10.585544109344482,0.02384245822216596,0.16681206165131032,0.16633302293122604,0.2367728895880524
1051,10.595559120178224,0.08546065308734754,0.1778190470151239,0.15454433234738527,0.250613422162864
1052,10.60569429397583,0.15269319401652764,0.1934095949980159,0.11113125052104775,0.27031951054009656
1053,10.615828037261965,0.22123475609025323,0.21434333137395314,0.04097052910092418,0.3107514525494737
1054,10.628031253814695,0.28757754323453094,0.24019214782615442,-0.04389249011664764,0.37725278254611955
1055,10.640793085098268,0.3492323244715706,0.2692549336456224,-0.1278046572597553,0.45912467388020917
1056,10.646625995635986,0.40431968457129636,0.29867435104035017,-0.19624346352311123,0.5396223422698078
1057,10.656107187271118,0.4508661843623147,0.3247694524723568,-0.23997971521132044,0.6052650470442958
1058,10.666030168533323,0.4862778729467824,0.3435946672734288,-0.2570328060535302,0.6485285872528187
1059,10.677430152893066,0.5073778315195621,0.3517002603232932,-0.2517688299154465,0.6667179919170911
1060,10.686496257781982,0.5111199095514284,0.3469373436249307,-0.23186586296812015,0.6598263868256063
1061,10.696388244628906,0.4957396860950269,0.3290186907165422,-0.2047555906493665,0.6292344452686888
1062,10.706530094146729,0.4618425127260107,0.2995807569265395,-0.17505864759556286,0.5776613770884645
1063,10.71701717376709,0.4128953411278708,0.2617178922092886,-0.14380286459080893,0.5095665625726399
1064,10.727972030639648,0.35481466906581827,0.21921364164504864,-0.10942406500398023,0.4311863820548664
1065,10.74121904373169,0.29472420153805096,0.17577894524287507,-0.06991086424005158,0.3502115382190174
1066,10.747003078460692,0.2392984575520712,0.1344863456975666,-0.025028686903545882,0.27563882914785703
1067,10.7568621635437,0.19324697459848866,0.09741932238359398,0.022448104303061697,0.21757489504064728
1068,10.76712703704834,0.1583946482368687,0.06549986602677436,0.06704683793563693,0.18404992669592216
1069,10.77849507331848,0.13356276285423546,0.03850416386667857,0.10223906331452458,0.1725526247953364
1070,10.787143230438232,0.11518281445778139,0.01529626553430161,0.12265069214168973,0.16895043287469586
1071,10.797329187393188,0.0983959149060135,-0.005758801448125369,0.1259387849295903,0.15992341108747019
1072,10.807322978973389,0.07834277260603154,-0.026325557404949098,0.11363543927932364,0.14051205660898458
1073,10.817257165908812,0.051375185991403005,-0.04769423683107601,0.09065085146786027,0.1145937469253802
1074,10.828903198242188,0.015951416637378646,-0.07048557484925756,0.0636120114942457,0.09627643512777972
1075,10.841162204742432,-0.02697601130777015,-0.09446223515555602,0.03867508995557227,0.10557737276392189
1076,10.847512245178224,-0.07417141380257859,-0.11848705775271003,0.019679779542361532,0.14116612625981964
1077,10.85772705078125,-0.12087691822332235,-0.14070684912999262,0.0073418147207516046,0.18564360747047584
1078,10.867699146270752,-0.16193846359285047,-0.15897627193307404,-0.000318390743844199,0.22693087582173
1079,10.879090070724487,-0.19301229072948822,-0.17141280914892287,-0.006639284690643995,0.25822504838642774
1080,10.888013124465942,-0.21152934759449624,-0.17691240091358146,-0.014685595353809545,0.27614910682755583
1081,10.898171186447144,-0.21714310104130496,-0.17548817693790458,-0.02592710141571499,0.2803915853991422
1082,10.908164024353027,-0.21153542366502331,-0.16834951680836002,-0.03966928409916103,0.27324429980456894
1083,10.918253183364868,-0.19768436887259724,-0.1576684520868492,-0.05342953908773147,0.25844373880430455
1084,10.929486274719238,-0.17890579191665523,-0.1460222665676623,-0.06411356592807439,0.2396671317700792
1085,10.941392183303831,-0.15803667935836382,-0.1356048137113593,-0.06948478950906505,0.21952765998258586
1086,10.948400020599363,-0.13700681554576896,-0.12744430418008298,-0.06926251994001283,0.19952497297927033
1087,10.958585262298584,-0.11684660624410415,-0.12095150841664529,-0.0653793582332111,0.18043518853597565
1088,10.968609094619753,-0.09800835364279334,-0.11404270312979488,-0.06133601853245637,0.1623991462118419
1089,10.98015022277832,-0.08078861523749402,-0.1038400598856624,-0.0609484686400718,0.14499749728398634
1090,10.988967180252075,-0.06564589549416802,-0.08769346602606168,-0.06695126271952627,0.12838223848583685
1091,10.99878215789795,-0.05328504934898699,-0.06415803898515622,-0.07991214949775963,0.1155054201667484
1092,11.0089430809021,-0.04447841858442179,-0.03364273053075816,-0.09778636636756616,0.11257147278377466
1093,11.019163131713867,-0.03969446426082361,0.0013889285356052732,-0.11625074040081905,0.12284874545215936
1094,11.030463218688965,-0.038703306846907384,0.03667595538118386,-0.1297471158264333,0.14027610533974189
1095,11.04139518737793,-0.04037567018435495,0.06686067164427131,-0.13295535727485003,0.15420010111424015
1096,11.04904007911682,-0.04282078550469625,0.08657603608815156,-0.1222466901619345,0.1557988541406006
1097,11.059453964233398,-0.04383553489916522,0.09172339605798632,-0.09664103815202386,0.14026484149425003
1098,11.069406986236572,-0.04147400344553341,0.08058514165223929,-0.05800476711139994,0.10760395450242213
1099,11.080810070037842,-0.03450171134632226,0.05438799739946354,-0.010574712937082589,0.06527056687857627
1100,11.08959412574768,-0.0225886126285985,0.017098053781978036,0.03989243242003532,0.048928468482095144
1101,11.10011911392212,-0.00624846821332763,-0.025486733710929143,0.08708378985248298,0.09095165421989969
1102,11.109957218170166,0.01335436942682563,-0.06703064775142387,0.12507821233115246,0.14253422789183115
1103,11.121169090270996,0.03460068195452283,-0.10193952721648351,0.14920896694278762,0.18398964703746815
1104,11.131109237670898,0.05555387891041408,-0.12631615055398474,0.15674940390783995,0.20883577035132905
1105,11.140541076660156,0.07404776060803124,-0.13844884564435142,0.14730535975434977,0.21529055419055465
1106,11.150423049926758,0.08775814135305463,-0.13882200678622572,0.12283186141228984,0.20508707204479174
1107,11.160198211669922,0.09428813583868932,-0.12971447531145583,0.08728176975071274,0.18257657296618823
1108,11.17029619216919,0.09129383614096251,-0.1145162568764408,0.04598432016276051,0.1535027534188073
1109,11.18157196044922,0.07667806735411933,-0.09695940626069875,0.004892732348588389,0.12371172662858203
1110,11.190368175506592,0.04886686745645426,-0.0804872555651773,-0.030164901897742704,0.09887411364923214
1111,11.200520038604736,0.007146606579062554,-0.06792819853058817,-0.05413099280360867,0.08715204256419487
1112,11.210567951202393,-0.04800687626135211,-0.061475100137050404,-0.0632336915988309,0.100410895118255
1113,11.221819162368774,-0.11470089342576567,-0.0627663922357873,-0.055434462671638,0.14201723345657308
1114,11.232017040252686,-0.1895682387292309,-0.07278742314611958,-0.030861159751238654,0.20539361549071192
1115,11.241130113601685,-0.2678738328455002,-0.09145747403443803,0.007868271157356296,0.28316562215619423
1116,11.250586032867432,-0.3437214031109436,-0.11703544188079314,0.055654193848492094,0.36734055984292535
1117,11.260930061340332,-0.4103358347435991,-0.14569812453688272,0.10542970936968293,0.44801658940944034
1118,11.271014213562012,-0.4605135740615312,-0.17169375865957393,0.14918111002494916,0.5136209713843988
1119,11.282346248626707,-0.4873668132603272,-0.18826222513917357,0.1793111500368887,0.5523780993209553
1120,11.29117727279663,-0.48539076385878294,-0.18914668349792085,0.1900653565253225,0.5545317856252907
1121,11.30119013786316,-0.45180355879078576,-0.17028867432602457,0.17867317380877543,0.5148288952444635
1122,11.311378002166748,-0.3880036104494327,-0.13127999073572869,0.1459179838116948,0.4348255922654946
1123,11.322646141052246,-0.30070962879004076,-0.0761648078344579,0.09605363130082986,0.3247362912973845
1124,11.340720176696776,-0.20217712265789353,-0.013256817215822694,0.03616434273656335,0.20581348793139453
1125,11.342843055725098,-0.10914079931883507,0.046087747596233186,-0.024886724063124095,0.12105843047488433
1126,11.351636171340942,-0.04053462184580235,0.08944603782166,-0.07778996558850292,0.12527939972891192
1127,11.361826181411743,-0.014264046380289552,0.10556953305096109,-0.11424267692381206,0.15620428469941378
1128,11.37193202972412,-0.043477757909779216,0.08639397309934709,-0.1282736383550876,0.16064980646612642
1129,11.383669137954712,-0.13307129569777845,0.028398189227889253,-0.11717299425611762,0.17956596969652341
1130,11.392102241516112,-0.2774306514481819,-0.06694420222916558,-0.08186967928583946,0.2969039187370693
1131,11.402228116989136,-0.46038634738204615,-0.19360289196548847,-0.026689022629865392,0.5001499500770945
1132,11.412108182907104,-0.6577616652817099,-0.3420170190942139,0.041499820478016626,0.7425283056988249
1133,11.42349910736084,-0.8419235660217522,-0.500315883261228,0.1145507332559761,0.9860391191812464
1134,11.441749095916748,-0.9869556767206067,-0.6555067757959464,0.18436987333129282,1.1990675089908929
1135,11.443843126296995,-1.0729806000488742,-0.7946304502888636,0.24402026874957028,1.3573027710014212
1136,11.452422142028809,-1.0887478923740932,-0.9059488199993222,0.2884829029060824,1.4454541234076972
1137,11.462602138519289,-1.0323975547855508,-0.980121381611112,0.315039157175474,1.4579891304026558
1138,11.472670078277588,-0.9108176081034357,-1.0112095750318217,0.32326152911386663,1.398796459844082
1139,11.48470401763916,-0.7380766377607444,-0.9973338204149845,0.31465485479587313,1.2800154492030031
1140,11.4929301738739,-0.533228492962079,-0.940863727742769,0.2920748751166458,1.120207531024066
1141,11.50300121307373,-0.3176775950049821,-0.8480859379380785,0.2590929256937968,0.941964944486275
1142,11.512994289398192,-0.11237192120355627,-0.7283679346296243,0.21943444029249465,0.7689595375948486
1143,11.523178100585938,0.0647835165920163,-0.5929309774770108,0.17654272447176161,0.6220380869671759
1144,11.542610168457031,0.20087753018587728,-0.4534325985855189,0.13328335549482426,0.5135341823535743
1145,11.544690132141112,0.28900664413750354,-0.3206065024322402,0.09179810551164515,0.44129384986988296
1146,11.553325176239014,0.3282773522627763,-0.20319722153546943,0.05348187837725467,0.3897633155687603
1147,11.563486099243164,0.32299957534934987,-0.10734020135021763,0.0190060004267416,0.34089862503974244
1148,11.573506116867064,0.2814593123967199,-0.03638954702957781,-0.01167935028077216,0.2840421639314016
1149,11.585225105285645,0.214620081746432,0.008938569677392039,-0.039333424080391484,0.21837764484170688
1150,11.593775272369385,0.13491487335347063,0.03028384210852345,-0.06527710431718942,0.15290596617815222
1151,11.603849172592165,0.05515139468328851,0.0313355986809126,-0.09101745242435244,0.11094040168496928
1152,11.613814115524292,-0.01250244741368668,0.017480089756325302,-0.11771561246183052,0.1196613143270834
1153,11.624000072479248,-0.05751563546804101,-0.0047224901994028,-0.14572486744627114,0.1567357241639867
1154,11.642754077911375,-0.07196885072628581,-0.028297396684410406,-0.1744654407555337,0.1908361814541465
1155,11.644744157791138,-0.051342131198525154,-0.046754074762839055,-0.20277865873379186,0.2143388494436119
1156,11.65411615371704,0.005099471248546829,-0.05493523354320167,-0.22963211582714388,0.23616687555775406
1157,11.664278984069824,0.0944060180769974,-0.04965251053088871,-0.25476227507400534,0.2761913917052042
1158,11.674328088760376,0.2104527671780655,-0.030011344634866693,-0.27877618049322467,0.3505812414121565
1159,11.68570327758789,0.34471145366785994,0.0026193894315560545,-0.30256210877970385,0.4586683738389041
1160,11.694473266601562,0.4871301282970047,0.045002952824196196,-0.32638156674114116,0.5880866898391385
1161,11.704553127288818,0.6269753432797172,0.0927318393401047,-0.34922370869770386,0.7236397403575185
1162,11.714624166488647,0.7535200270198592,0.1410295630131135,-0.368741012566454,0.8506772026522239
1163,11.724770069122314,0.8565755929292019,0.18541198401357048,-0.3817236728089126,0.9559353077486928
1164,11.743778228759766,0.9270054907236664,0.2221094025577809,-0.3848767816839523,1.0280087079474554
1165,11.74591827392578,0.9573656868007854,0.24833562824420527,-0.3756038998819349,1.0579687765361991
1166,11.75497817993164,0.9426781465139885,0.2624994179591773,-0.35255678191838324,1.040117453377551
1167,11.765096187591553,0.8811796044462766,0.26431325073889556,-0.3158704895959782,0.9726834819230055
1168,11.77507710456848,0.7747976678158731,0.254656311060453,-0.2671466386420475,0.8582124383586962
1169,11.786656141281128,0.6291177903274996,0.2351186061010823,-0.20926373030196466,0.7034637601620748
1170,11.795281171798706,0.45271413451400555,0.20736012972710433,-0.14600457005379927,0.5189081281554582
1171,11.805437088012695,0.25590670438467716,0.17259844166822952,-0.08149706950093191,0.3192494882573307
1172,11.815377235412598,0.049227215783425954,0.1314853438588839,-0.019648717302497377,0.14176666221333697
1173,11.825616121292114,-0.15799857943881346,0.08431961842247644,0.03617960144788944,0.18270827216227295
1174,11.843289136886597,-0.358606191588378,0.03128734752254882,0.08322688877608359,0.3694644959612003
1175,11.845685958862305,-0.5478943194558797,-0.027468367058198804,0.11927056191271747,0.561398399908515
1176,11.855688095092772,-0.7232279744861442,-0.09186886088519808,0.14259640358642808,0.7428541747849695
1177,11.865848064422607,-0.883064964924259,-0.16184279684630287,0.15206187990596606,0.9105600685777149
1178,11.875905990600586,-1.0256918878561945,-0.23710138842243697,0.14724454229459766,1.0629872400181466
1179,11.887426137924194,-1.1480226462125105,-0.3167514106007011,0.12860889178015708,1.1978429360225944
1180,11.896140098571776,-1.2447804732681422,-0.3988329785189444,0.0975988426329689,1.3107523433003077
1181,11.906153202056885,-1.308289528039717,-0.4799295088778657,0.05658498505253938,1.3946883821139155
1182,11.924962997436523,-1.3289654657687908,-0.5550099195787943,0.008655375339433235,1.4402291954960451
1183,11.926974296569824,-1.2964705684008204,-0.6176299477659436,-0.04269005355085106,1.4367063470936163
1184,11.937599182128906,-1.2014298511765693,-0.660548487373417,-0.09384374868347442,1.3742505741808624
1185,11.946402072906494,-1.0375486659110962,-0.6767147951712088,-0.14134204723921684,1.2467669078281152
1186,11.956486225128174,-0.8038376338417775,-0.6604819931381086,-0.18211407691750808,1.0561992907834923
1187,11.96697211265564,-0.5064364602472,-0.6088227468648014,-0.21381961648111691,0.8202815698038375
1188,11.976692199707031,-0.159398167378361,-0.522267357022725,-0.23526938947126486,0.5945777103098167
1189,11.988123178482056,0.21608378461249084,-0.40528558804632064,-0.24673365240371173,0.5213694516165911
1190,11.99684715270996,0.5941071277038356,-0.2659358032410641,-0.249844595133384,0.6972140649408445
1191,12.00695514678955,0.9476313592423339,-0.11480462478755588,-0.24694881207361444,0.9859863136355667
1192,12.018570184707642,1.2521411025003135,0.036495819689461,-0.24011071442658413,1.2754773383357114
1193,12.027289152145386,1.4883008326375142,0.17682959775076393,-0.23023478756231713,1.5163496076017826
1194,12.042534112930298,1.6430201985321595,0.29661980297143103,-0.2167369227655574,1.6835894909357656
1195,12.047240257263184,1.7091562111187875,0.38834110292300866,-0.19789461614841145,1.7638554491017442
1196,12.057371139526367,1.6846552288901822,0.44656435906696573,-0.17169518788490004,1.7512744515234477
1197,12.067283153533936,1.5719584550284604,0.46787829482568394,-0.13686272113429052,1.6458113158988599
1198,12.077545166015623,1.378112916760854,0.45099207750529624,-0.0937574622655232,1.4530586798357878
1199,12.088868141174316,1.1155339446474037,0.3971645817952144,-0.044903827125982086,1.1849776539596537
1200,12.097797155380247,0.8028142945582165,0.3108475773594807,0.005053562581776865,0.860907977888481
1201,12.107800960540771,0.4644672824376329,0.20005847443406224,0.0501107014621628,0.5081971389617559
1202,12.118836164474487,0.12857488731996766,0.0757846051760407,0.08430141523098396,0.17141043329091007
1203,12.128022193908691,-0.17748309070432208,-0.04981470153974349,0.10325999555269012,0.21129216421106092
1204,12.142073154449465,-0.43153895215088944,-0.16567299730164262,0.10531552787072404,0.47409362964406826
1205,12.148077011108398,-0.619590985359577,-0.2634450304727108,0.09176622033622664,0.6794978384177657
1206,12.158162117004396,-0.7366588859279686,-0.33807127078918514,0.06636382953466433,0.8132420649598472
1207,12.168320178985596,-0.7859894791194402,-0.38760117542380795,0.03425693940322795,0.8770334488339899
1208,12.17835521697998,-0.7772005778122817,-0.4126743140291589,0.0007558677557115551,0.879966703317373
1209,12.18964910507202,-0.7238715480223212,-0.41584367785528265,-0.02972155642013498,0.8353438533708589
1210,12.1984441280365,-0.6410535396961256,-0.4008305630812904,-0.05425091334481482,0.7579960043798009
1211,12.208913087844849,-0.5430304138991614,-0.37176262264652804,-0.07136914950445353,0.6619539512062063
1212,12.219769954681396,-0.4415106865193647,-0.33243932497784845,-0.08046182104638383,0.5584995038033862
1213,12.22903609275818,-0.3444205640134602,-0.2857330899295486,-0.08097631638551149,0.45478136220760407
1214,12.242407083511353,-0.2554940437542294,-0.2332901985982355,-0.07199726743469066,0.3533909020814693
1215,12.248814105987549,-0.17476140018892122,-0.17565883496988927,-0.05245962630509809,0.25327768494488734
1216,12.258924961090088,-0.09981704860169226,-0.11284033426253684,-0.021855144587181786,0.15223019271143376
1217,12.269103050231934,-0.02751562479583186,-0.04508803972024625,0.018997722608920263,0.05613336261124021
1218,12.279167175292969,0.04437292149829008,0.026356256584517578,0.06758864123050158,0.08504018371821523
1219,12.290468215942385,0.11598456863755437,0.09891126813213587,0.12002008365405646,0.19401206046499672
1220,12.29935908317566,0.18494374723558787,0.16885619916900635,0.17188049081578166,0.303742504043175
1221,12.309429168701172,0.24675043874582014,0.23197979561051812,0.21926083524518572,0.40345472913967556
1222,12.324000120162964,0.29574789944939095,0.28435772564279954,0.2594343017401996,0.4854197081710812
1223,12.329488277435305,0.3263148538176403,0.3229295180310366,0.2909671775982196,0.5435317432103294
1224,12.340734958648682,0.33399781985895904,0.34575679409043314,0.31339186528357793,0.5738612772753987
1225,12.350069999694824,0.31642759098623274,0.35205859099588827,0.32676182324743147,0.5751912386009946
1226,12.359779119491575,0.2739184236248088,0.3421504773656958,0.3313012400335944,0.5494167485711289
1227,12.369956016540527,0.20967392206075816,0.31733912558766847,0.32716559967222436,0.5017017080197884
1228,12.379981994628906,0.1295818302557853,0.2797986598586151,0.31428225338074306,0.44028635634231694
1229,12.3914532661438,0.04164873199055309,0.232463148687903,0.29231040146977627,0.37579130269570743
1230,12.40060329437256,-0.04484208057086651,0.17892443044154432,0.2607950184006383,0.31943513523303035
1231,12.41018009185791,-0.12037240118107664,0.12326308121870656,0.2195406256900491,0.2790723714128752
1232,12.424504280090332,-0.17634034166875676,0.06974986754068035,0.16913902743791556,0.2541042516850914
1233,12.430477142333984,-0.20617896188084228,0.0224188805705803,0.11148730340079306,0.2354608021473643
1234,12.441704273223875,-0.20627013886342516,-0.015435118272089803,0.05006091141454984,0.21281848583820323
1235,12.450695991516112,-0.176499564144316,-0.04174779819127513,-0.010258451266129356,0.18165960095555783
1236,12.460675239562988,-0.12034051226929265,-0.056034678302031134,-0.06379935873596333,0.14728232154867751
1237,12.470788955688477,-0.04442362093309251,-0.05945659489792287,-0.10492370782239831,0.128520540136053
1238,12.480815172195436,0.04236538497523471,-0.05455419769513931,-0.1288205895690153,0.14617021114840356
1239,12.49233627319336,0.130167465829647,-0.04476193053211395,-0.1322627011203688,0.19089426836112738
1240,12.500846147537231,0.20966421079320918,-0.03385075845743544,-0.1143369816756345,0.24120095462990454
1241,12.511147022247314,0.2735331587010899,-0.02534738566558522,-0.07685984427010985,0.28525482385106316
1242,12.52491807937622,0.3174256765451722,-0.021953285969487656,-0.024109362017700336,0.3190960172611355
1243,12.531285285949709,0.3401645824042316,-0.025100003010104455,0.03807417931192433,0.34320780352962416
1244,12.542554140090942,0.3432200999361897,-0.03479858565144005,0.1033603579685916,0.36013100694461736
1245,12.551297187805176,0.3298604819068682,-0.04976831441096985,0.1657825870943053,0.3725166960376694
1246,12.561413288116457,0.3044396167914299,-0.06766338837348637,0.22030808965211696,0.38183434728224636
1247,12.571568012237549,0.2720597379834645,-0.08522347992422939,0.2631978958377818,0.38801117887950437
1248,12.581745147705078,0.238538195795644,-0.09830186018969475,0.2921558805786592,0.38976760399869953
1249,12.593155145645142,0.2104476152527307,-0.10185253900314094,0.30624161373178893,0.38528698972064696
1250,12.601706981658936,0.1950418567407835,-0.09001304477338885,0.30563264325720774,0.3735705913674898
1251,12.61177396774292,0.20001156774698756,-0.05639028308497075,0.29141452329423756,0.3579202643687818
1252,12.62582516670227,0.2331123822668762,0.0054148602451270485,0.26552689059887985,0.35337689951201107
1253,12.631895065307615,0.3017385227964562,0.10107634900182683,0.23083926536030913,0.39312762673082874
1254,12.643226146697998,0.4125002967614396,0.23468182692438005,0.1912260871917094,0.5116634354138389
1255,12.65214729309082,0.5708381383826385,0.4078299712948337,0.15156350415051228,0.7177415701412895
1256,12.662175178527832,0.7806776909258833,0.6187619502722701,0.1176958410108462,1.0030834059066887
1257,12.672327041625977,1.0440930267049118,0.8616134468739858,0.09644149737863168,1.3571326179355232
1258,12.682376146316528,1.3608960422472427,1.1259389262174,0.0955431185321568,1.7688711063485236
1259,12.693780183792114,1.7280516962093233,1.3967069349540382,0.12323224863113513,2.225340224330498
1260,12.702453136444092,2.1389134469765274,1.6549107368398865,0.18707610260352547,2.710844471512571
1261,12.713716983795166,2.582485226109929,1.8788232152877373,0.292123723498899,3.206952273921622
1262,12.724943161010742,3.0431031869416896,2.0458131943285673,0.4387699124832758,3.6930133588391074
1263,12.73269009590149,3.5009215238632008,2.134511071493248,0.6209117558258304,4.1470616632862605
1264,12.744073152542114,3.9333435327428026,2.126993039836026,0.824909382784064,4.5470612738213365
1265,12.75298309326172,4.317207120503213,2.01066277030076,1.029702199985221,4.872507436408033
1266,12.76290798187256,4.631332661638987,1.77963699634358,1.20825446944398,5.106488903782149
1267,12.773141145706177,4.859047600978923,1.4355426640245983,1.330346368398131,5.238410807556425
1268,12.783624172210692,4.990390718323616,0.9876999478795117,1.366505348054641,5.26753144981913
1269,12.794787168502808,5.023736846170406,0.45276429665743756,1.2925396969818375,5.207070796155146
1270,12.80341100692749,4.966576121130955,-0.14610696134092824,1.0938984665240679,5.087714562178601
1271,12.814531087875366,4.83520351150256,-0.7806858366378162,0.769089993331926,4.957838520062637
1272,12.824666023254396,4.65317717448655,-1.419844663773288,0.3314464034802,4.876256084824512
1273,12.833937168121338,4.44860666320487,-2.0322336709590885,-0.19142882568249547,4.894560238937999
1274,12.844906091690063,4.250588295668541,-2.5888927374480986,-0.7607871599191574,5.034745630911631
1275,12.853837013244627,4.085310005719962,-3.0653504697215848,-1.331864509333362,5.278256759222668
1276,12.863718032836914,3.9724365664577204,-3.443107637862091,-1.8597676925141846,5.576197481308764
1277,12.873985290527344,3.9223785481263325,-3.71053700822981,-2.3048445501009995,5.8707279586414955
1278,12.884063243865969,3.934948805654152,-3.8631726745381756,-2.6367573647233327,6.112316632573956
1279,12.895586967468262,3.9996589147295087,-3.9033586063084478,-2.837030864794151,6.2675532683346304
1280,12.904269218444824,4.097525332556884,-3.839333718899533,-2.900131000295138,6.319885843502017
1281,12.915486097335815,4.203923259634954,-3.683918909521292,-2.8331379288600833,6.266649809010707
1282,12.925835132598875,4.2919038623656105,-3.4529672633920043,-2.6540349648960517,6.114517420102464
1283,12.93430519104004,4.335430405015711,-3.1637098651539732,-2.388756006617556,5.8746210232455605
1284,12.945810079574583,4.312058354619859,-2.833162728405249,-2.0674178338586997,5.558315823972996
1285,12.954755306243896,4.20468237256657,-2.4768306452766864,-1.720428040715637,5.174351799291812
1286,12.96469020843506,4.002192634362023,-2.10793936419018,-1.3751741118818999,4.727796324254494
1287,12.974842071533203,3.6992131962439263,-1.7372897088903623,-1.0536957873602595,4.22050099113628
1288,12.984904289245604,3.2953647664802723,-1.3736279937918328,-0.7713416520117644,3.6525676932284763
1289,12.996339082717896,2.794535476923147,-1.0242778466232503,-0.5362092348507288,3.0242509787391074
1290,13.00503706932068,2.2044714726273322,-0.6957140144741323,-0.34922883620981315,2.3378779359932143
1291,13.016385078430176,1.5367679154873313,-0.39378285474118846,-0.20489517179952724,1.5995945093010775
1292,13.026618003845217,0.8071577689789475,-0.12343256470449727,-0.09266806567318564,0.8217825943935608
1293,13.035198211669922,0.03586876622181225,0.11191409800604801,0.0011016877802934705,0.11752679455659287
1294,13.046550273895264,-0.752260118159659,0.3110114109999773,0.09106796395789582,0.8190950843493188
1295,13.055461168289185,-1.5282273028401963,0.4751590165131708,0.19099735908445367,1.6117489789967978
1296,13.065531253814695,-2.2601447990748187,0.6081658528964533,0.31232789904777225,2.361285441012547
1297,13.075651168823242,-2.915452849737292,0.7159569553716286,0.46320005453503504,3.0376000348149144
1298,13.08576512336731,-3.46393010766926,0.8059513674386326,0.6478293968723775,3.6149761167877448
1299,13.097371101379396,-3.8810435376278125,0.8863737525392382,0.8660347476620732,4.074085609595263
1300,13.105940103530884,-4.150963321681826,0.9656606713217112,1.1127969916431666,4.4046922905800585
1301,13.11596417427063,-4.26860691152518,1.0520438866952935,1.3779240476707737,4.607219984524603
1302,13.126188278198242,-4.240371557425108,1.153238979049301,1.6461419905158512,4.6925999766396025
1303,13.136147022247314,-4.083584829467428,1.2760508733090898,1.8980136862203585,4.680430198583161
1304,13.14732813835144,-3.824945282602976,1.4257744725017636,2.111861211586224,4.595976179044761
1305,13.156376123428345,-3.4982706651948505,1.605473369821692,2.266414313170841,4.466774700733752
1306,13.166263103485107,-3.1417969413429305,1.815314953386519,2.3435278938334343,4.319534626530486
1307,13.176473140716553,-2.7951894305559963,2.052040541595008,2.330303729827612,4.177830754146219
1308,13.186487197875977,-2.4963999691484746,2.3085757965617635,2.220309151105758,4.060949118238156
1309,13.198179244995115,-2.2785564024243126,2.57387500930686,2.0140183565343,3.9840835562297556
1310,13.206846237182615,-2.1671780572881243,2.833165471274947,1.7188222459783,3.959524874639078
1311,13.224846124649048,-2.178063298497198,3.0686718268576447,1.348864769276205,3.99751706425437
1312,13.226983070373535,-2.3160644564310076,3.2608030222216873,0.9246729594567377,4.105120095444667
1313,13.23688507080078,-2.5746547042633834,3.389814726046954,0.4722933687788479,4.282843885702913
1314,13.248112201690674,-2.9359429687846776,3.4379156807982416,0.021699811728900707,4.5210061077224495
1315,13.25709104537964,-3.370949316610044,3.3915233155051143,-0.3954026699184746,4.798132237250989
1316,13.267335176467896,-3.8405066537069272,3.2433554161229177,-0.7480762568764134,5.082171169742639
1317,13.277302265167236,-4.297563725789008,2.9943660876035216,-1.008882958753194,5.334147267208707
1318,13.287420272827148,-4.691396761886611,2.6551667823776124,-1.156792057243296,5.513373022332412
1319,13.298891067504885,-4.973357262234256,2.245690484120192,-1.1798260349972762,5.5829559984961
1320,13.307504177093506,-5.10295326077908,1.7924964815682023,-1.077018188710852,5.514811311091635
1321,13.324908256530762,-5.0530187264522795,1.3250974441689027,-0.8595850732262037,5.294125799840203
1322,13.32746696472168,-4.81342653527614,0.8730526283272236,-0.551151995558951,4.922912189399497
1323,13.33775520324707,-4.393262367462604,0.46371935097011296,-0.1866307653021554,4.421608407399342
1324,13.348972082138062,-3.8210401518789134,0.11952071884111339,0.19066003621878988,3.8276604204022693
1325,13.357936143875122,-3.142182602679646,-0.145048753971741,0.5338834054218812,3.190514400562432
1326,13.367776155471802,-2.413435144023193,-0.32510442939690254,0.7993129699875445,2.5630574141852627
1327,13.37805700302124,-1.6947804430560338,-0.42490199736695855,0.9537512708080802,1.9905938671913126
1328,13.388081073760986,-1.04015402929261,-0.45572876937193907,0.9815145629016164,1.500992989015893
1329,13.399433135986328,-0.48887222186273727,-0.4329342788498165,0.8892551791560495,1.1032691932470868
1330,13.408263206481934,-0.060119514080413744,-0.37273027250946794,0.7060304277890885,0.8006379812264034
1331,13.424160957336426,0.24766886897473017,-0.28953443381441163,0.47701676572811486,0.6105039326729724
1332,13.428356170654297,0.45246907157043226,-0.1945261926208741,0.2524646917446055,0.5534501973268064
1333,13.438557147979736,0.5812263685337679,-0.09549215822569385,0.07573627804855428,0.5938676852415866
1334,13.449600219726562,0.6619035797003932,0.002448476622003271,-0.026027913395282574,0.6624196525871463
1335,13.458670139312744,0.7171790035989026,0.09572869661350464,-0.04649876730906569,0.7250323040525145
1336,13.468897104263306,0.7610726767644136,0.18127469753180273,0.0007219844840129792,0.7823635066541583
1337,13.478754997253418,0.7988621728845908,0.25590691733733545,0.08800758851240206,0.843453885664626
1338,13.488829135894775,0.8297118909280118,0.3164100003515632,0.18305801983534414,0.9066682683847772
1339,13.500754117965698,0.8505446079606215,0.36013314027530896,0.2587899403172241,0.959215430476822
1340,13.510048151016235,0.8592419092211938,0.38566535502875593,0.3000769280282275,0.9884738678217025
1341,13.524007081985474,0.855829998745615,0.393088471479131,0.3049269400036053,0.989921194794152
1342,13.529009103775024,0.8417193376569525,0.38368158586097834,0.28074322140548597,0.9667056217275163
1343,13.539396286010742,0.8182018003392293,0.3594224755355854,0.23865389102446846,0.9249834494192875
1344,13.551046133041382,0.7854547014631705,0.3226872590874433,0.18887373994261136,0.8699077220417545
1345,13.55956506729126,0.7425819098838768,0.2762179113644649,0.13846898438071045,0.8042996251899903
1346,13.569553136825562,0.6884797841821074,0.22318494776982822,0.09127807046099867,0.7294844894071053
1347,13.57965898513794,0.6229351767820077,0.1671860141852334,0.04890546516019584,0.6468316182238708
1348,13.58965826034546,0.5473865085735443,0.11210710429806268,0.011719543374852736,0.5588714881789432
1349,13.601824283599854,0.46507727849583685,0.06184856567331615,-0.02064698089621055,0.4696258275149155
1350,13.611184120178224,0.3806723525880837,0.019997499116256718,-0.04916554924628264,0.3843547726105917
1351,13.62602424621582,0.29959018204672216,-0.010447707936139626,-0.07527576814589222,0.30907907248770683
1352,13.62992811203003,0.22729434608121468,-0.027254423203851175,-0.10056791178304827,0.250038853430951
1353,13.640207290649414,0.1686864915619139,-0.02904743664358023,-0.1264106904814954,0.21278756702175736
1354,13.651904106140137,0.127651749506773,-0.015327604490720842,-0.15374013031030748,0.20041440137723188
1355,13.66034698486328,0.10676709303423157,0.013582690071825039,-0.1830771588878874,0.2123698371497899
1356,13.670358180999756,0.10718182576690814,0.056645630105812916,-0.2146573795067243,0.24652476906287996
1357,13.680482149124146,0.12867440044261347,0.1122318902265024,-0.24852504667205844,0.30152578220846815
1358,13.690540075302124,0.16984656327949602,0.1782643188705145,-0.2845719838004591,0.3763073695854933
1359,13.702367305755615,0.22836765559042377,0.25240520773592046,-0.3226045381299668,0.4689710684403983
1360,13.71213412284851,0.3011971080122307,0.3322557345624549,-0.36244541057135615,0.5766110011687314
1361,13.727668285369871,0.38477306367939523,0.4154630145025479,-0.40395163020804503,0.6955837451382181
1362,13.730741024017334,0.4751785228207238,0.4996481112600749,-0.4468633606333122,0.8216627816278056
1363,13.740880012512209,0.5682840948998507,0.5821729512664292,-0.49053817690198753,0.9499999266845931
1364,13.7520170211792,0.6598757654538326,0.6598542502913544,-0.5336967998699901,1.0750236888796056
1365,13.761190176010132,0.7458038168942033,0.7287633374826185,-0.5742840431767436,1.1904291232997433
1366,13.771127223968506,0.8221931311877376,0.7842477403864366,-0.6095059415871494,1.2893965860446372
1367,13.78130316734314,0.8857282171113089,0.8212794042376513,-0.636074380013415,1.3651391692137398
1368,13.791393280029297,0.9339827597782453,0.8351590824507642,-0.6506672175670645,1.4118010895942301
1369,13.80265212059021,0.9657115043499224,0.8224954108353608,-0.6505812041767919,1.4256062968811352
1370,13.813029289245604,0.9809963892397461,0.7822814827955639,-0.6344843727009247,1.4060187243518243
1371,13.828233242034912,0.9811924701705749,0.7168693612111071,-0.6030592616266995,1.356584246405801
1372,13.831640243530272,0.9687406311848815,0.6326990745930836,-0.5592864116961136,1.2851333859982557
1373,13.841750144958496,0.9470136449081753,0.540732180349774,-0.508275722592471,1.2031501754498424
1374,13.853033065795898,0.9203548327014339,0.45661164794816256,-0.45680858229726484,1.1243759584672994
1375,13.861871242523192,0.8943461927831294,0.4005506063375147,-0.4128276958005465,1.063354412791435
1376,13.871998071670532,0.8761926687394535,0.39683650928386766,-0.38490641794716013,1.0360240144081045
1377,13.882116079330444,0.8750379588033848,0.4727349280411107,-0.38151669430585056,1.065234588985399
1378,13.892239093780518,0.9020493465181183,0.656615765334817,-0.40999864961373284,1.1886699203416717
1379,13.903831005096436,0.9701667012163163,0.9753054987852349,-0.47541395616280124,1.455493962139325
1380,13.912399291992188,1.0934775892406081,1.4508622698860605,-0.5795992085135389,1.9069949677070217
1381,13.927317142486572,1.2862632082991536,2.097062982710068,-0.7206275967795335,2.5634840213500696
1382,13.932316303253174,1.5618301369713272,2.9159041335079277,-0.8927195800742608,3.4261871725299042
1383,13.9425151348114,1.9312477711031153,3.89444227952593,-1.0865642671102302,4.480738837347102
1384,13.953882217407228,2.4020500435995844,5.002374564267629,-1.290005285527567,5.69716678094275
1385,13.96260118484497,2.976893882289075,6.190856656526809,-1.4890369168847508,7.028928386882176
1386,13.972718238830566,3.652157644833578,7.393115009893822,-1.66902184914117,8.41320622266828
1387,13.982792139053345,4.416545234440877,8.527345669034474,-1.815994035108468,9.773399117124654
1388,13.992833137512209,5.249933156120461,9.50214829749019,-1.91789591400937,11.024107453585643
1389,14.004508972167969,6.122882338110721,10.224378342000485,-1.965687853336904,12.078556591889324
1390,14.013836145401,6.997317972090459,10.608885771509108,-1.954450273083976,12.858102192214314
1391,14.028478145599363,7.828793214984911,10.589118118332124,-1.8847106861375424,13.303065815721746
1392,14.033911228179932,8.570479908130404,10.127017911742211,-1.7640319392876191,13.383625305695066
1393,14.04394817352295,9.178572454495328,9.220302187624084,-1.6083625719023582,13.109042485865327
1394,14.054632186889648,9.618242626939608,7.905455858193625,-1.4421622642570182,12.53342154213976
1395,14.063578128814695,9.868870507616679,6.255633867921284,-1.2963475154935593,11.756193136662752
1396,14.073694229125977,9.927244115621848,4.3736540938815,-1.2037498210020656,10.914579217525407
1397,14.084033012390137,9.807866853812616,2.381012183368021,-1.1928338754211663,10.162987941241267
1398,14.093739986419678,9.54026052903971,0.40443247457936526,-1.2814593184859244,9.634431720313442
1399,14.105093955993652,9.16383998541427,-1.4381827825051943,-1.4728005304773641,9.392202851128493
1400,14.113899230957031,8.721403545523376,-3.050428583604875,-1.7547396336852328,9.40463213153854
1401,14.128239154815674,8.252611835934513,-4.366524564631925,-2.102576369392362,9.570421426314915
1402,14.134066104888916,7.7889091597141205,-5.3548422403793206,-2.4837440569662306,9.772943561596179
1403,14.144256114959717,7.35090590179136,-6.015146463792327,-2.862911719242886,9.920386487936982
1404,14.155566215515137,6.948351340252576,-6.371163506617393,-3.206264553274097,9.957481768058877
1405,14.164337158203123,6.581997875231029,-6.4615770207969305,-3.484533360832843,9.859850220363073
1406,14.174322128295898,6.246379312422608,-6.332096731459596,-3.67499678880452,9.623840445941836
1407,14.184298038482666,5.932758021405144,-6.029653864999769,-3.7628383096591094,9.258147526200474
1408,14.194607257843018,5.631814521882626,-5.598572882098792,-3.7419653659984227,8.778590884953674
1409,14.206181049346924,5.335793658705924,-5.078233296201879,-3.61505259399992,8.205349025868754
1410,14.214861154556274,5.03982884153571,-4.501853489668958,-3.3925863791951194,7.561494689194724
1411,14.22898817062378,4.74220492155488,-3.8961718315213303,-3.091130822967104,6.871954032402784
1412,14.234735012054443,4.4435195166829855,-3.281798071945665,-2.7313965332298267,6.162433878096283
1413,14.244975090026855,4.145038398425821,-2.673941850643173,-2.336555742244862,5.458095004822009
1414,14.256380081176758,3.846850994728646,-2.0832654907793393,-1.9307999744526245,4.781866395254379
1415,14.265161037445068,3.546574325717713,-1.5167693657251664,-1.5378179379061854,4.152548948150811
1416,14.275200128555298,3.23927480780076,-0.9787387215903196,-1.178905429624443,3.583385100375188
1417,14.285426139831545,2.9189547632172936,-0.4717062397203831,-0.8707375016479124,3.082367188229871
1418,14.295360088348389,2.5814003591497343,0.0028214297180027513,-0.6232119851642942,2.6555656559641774
1419,14.308356285095217,2.2275664409980855,0.44418752744862766,-0.4379965235767033,2.3132651735732934
1420,14.315550088882446,1.8662632594418158,0.8530335652408108,-0.3083309252761318,2.0750115123660096
1421,14.329922199249268,1.5149398753539285,1.2320791311004697,-0.22023269180920232,1.9650863212012322
1422,14.335684299468994,1.1978688049182553,1.586744967118943,-0.15474825811694146,1.9941404884971903
1423,14.345824241638184,0.941865021313134,1.9252228323996214,-0.090619394407224,2.1451817049864896
1424,14.357131958007812,0.770494056287029,2.257849283738091,-0.0068112042718642095,2.385705529052964
1425,14.366019248962402,0.6981845285980528,2.59585984796108,0.11537976848890738,2.6905877568306074
1426,14.37607717514038,0.7256089814901568,2.949714818518477,0.29067408484235313,3.0515270485784023
1427,14.386291027069092,0.8372513121981612,3.3272443217810355,0.5285608022238191,3.471443656211227
1428,14.396224975585938,1.001477393330272,3.7318744304953104,0.832449058105233,3.9525707038175275
1429,14.409090042114258,1.1729055774070978,4.1611627731607905,1.1993144709124248,4.486573115239718
1430,14.41649317741394,1.296598838696603,4.60584237010942,1.6199717662276125,5.051659233378588
1431,14.431339263916016,1.3135595356692786,5.04958898462294,2.0800111516534936,5.616959494101405
1432,14.436520099639893,1.1670394749500004,5.4697446302293535,2.56125525380747,6.151432022803372
1433,14.446668148040771,0.8091403835699297,5.83915453912348,3.04347011026117,6.634240288393477
1434,14.45800495147705,0.20706766438395163,6.129064616540377,3.5060688028435685,7.064051850151837
1435,14.467209100723268,-0.6516881277554291,6.312746625211975,3.929603280598094,7.464398791119741
1436,14.476962089538574,-1.7559345971937783,6.369289666614165,4.2968764289203705,7.881262856438144
1437,14.486947059631348,-3.069643116112232,6.2869027744398975,4.593571554984259,8.369513425899727
1438,14.496992111206056,-4.5333628810691815,6.065140287315719,4.808448358174758,8.969865179004064
1439,14.509756088256836,-6.068205508379341,5.715679486936639,4.933323562967507,9.686577902760297
1440,14.524717092514038,-7.582167027849174,5.261601329937605,4.96310235206018,10.47884012428998
1441,14.531311988830566,-8.978192086343205,4.735420368282314,4.895965258498977,11.269543691563014
1442,14.537283182144163,-10.162989301659017,4.176222504544396,4.733521233706769,11.963837562548715
1443,14.547378063201904,-11.055463211667337,3.626219289825022,4.480625851014643,12.467908452471475
1444,14.55879807472229,-11.593880342385605,3.1269727540697403,4.144825625147782,12.703369610506165
1445,14.567405223846436,-11.741330067474006,2.715505971399705,3.7356963418695437,12.616981873361556
1446,14.577593088150024,-11.48937481660511,2.4204559311084934,3.2643298578981628,12.186885985026834
1447,14.587757110595703,-10.859880962662656,2.2584824484071695,2.743066966541145,11.426380611370131
1448,14.597839117050173,-9.904910944234738,2.231439977110356,2.1855772816905557,10.385727381310817
1449,14.610279083251951,-8.704306009531404,2.325161512393074,1.6074641449665852,9.151789996696369
1450,14.624199151992798,-7.360339846943933,2.510601406491048,1.027468950409286,7.844323713924651
1451,14.630165100097656,-5.988989404569326,2.7472730517656396,0.46895085708242434,6.6057110302646205
1452,14.638037204742432,-4.708312523180387,2.9881058445772903,-0.03933500018175777,5.576605651879423
1453,14.648187160491943,-3.625593006301293,3.184869015262878,-0.4645919791118547,4.848109012674679
1454,14.659523010253906,-2.825270562171825,3.2936403117083795,-0.7742748314952564,4.40791580762067
1455,14.668385982513428,-2.359231750633135,3.2797230307703007,-0.9423873942977391,4.148572237853874
1456,14.67834997177124,-2.2406247982778202,3.1214421979865303,-0.9555943951194666,3.959414291282518
1457,14.688566207885742,-2.4421395544383913,2.812718886177608,-0.8174622608306938,3.813617401352052
1458,14.69857120513916,-2.899352532604177,2.3646267871832154,-0.5502686715594614,3.781600264687224
1459,14.710095167160034,-3.519238676283898,1.8057210295068749,-0.1937010702789118,3.960200676945931
1460,14.724691152572632,-4.1931270986786195,1.1800082628539812,0.20080089067315643,4.360625570233219
1461,14.730799198150637,-4.812032497510601,0.5413078625187521,0.5798277478289604,4.876973567313558
1462,14.738937139511108,-5.281206717647122,-0.055461935661641516,0.8986240431108002,5.357401010908669
1463,14.748934268951416,-5.531056953951302,-0.5632556867018784,1.1283462094533132,5.673007418014075
1464,14.760189056396484,-5.523008133847598,-0.9491329512239463,1.2582847480252692,5.7434965580871395
1465,14.769127130508425,-5.25026459968191,-1.196691491222553,1.294174924696309,5.538252217762405
1466,14.7792329788208,-4.734367092211221,-1.305401522197058,1.2541207567549817,5.068641215403849
1467,14.789367198944092,-4.019114157633346,-1.288014908610325,1.1629165947633833,4.377743256892451
1468,14.799540042877195,-3.1635413085540263,-1.1670330647202813,1.0457137623778738,3.5303650034953358
1469,14.810818195343018,-2.2350036373293896,-0.9709008050781874,0.9227518725365641,2.6056401613512965
1470,14.824847221374512,-1.3025431803385017,-0.7302771014877133,0.80674919436437,1.6972824291234485
1471,14.831473112106323,-0.4304186382462545,-0.4745992999265517,0.7032692061663769,0.9513633774654241
1472,14.839733123779297,0.32792991792169246,-0.22925222969669082,0.6130493027833847,0.7320683462165444
1473,14.849756240844728,0.934645553679538,-0.013726588484933511,0.5347187175650366,1.076881997787484
1474,14.861324071884155,1.3700008203912146,0.1590672769318157,0.4666232587757571,1.4560020302505114
1475,14.870119094848633,1.6322902076941976,0.2825861684489665,0.40736933733642594,1.7059238088891757
1476,14.880149126052856,1.7353945546031035,0.3560023963911484,0.35559377492638583,1.8068699176057865
1477,14.890281200408936,1.704839598783269,0.3833567624599319,0.30970264946971643,1.7746425544294322
1478,14.900811195373535,1.5732228415077,0.3724603660820926,0.2679190453854325,1.6387609490782387
1479,14.911725044250488,1.3756958932337424,0.3335022860893506,0.22852968445620256,1.433871954591713
1480,14.92490005493164,1.146007699271109,0.2775334552342973,0.19012443538014442,1.1943641682885362
1481,14.93156623840332,0.9134715158690045,0.2150900994464831,0.15175192483514072,0.9506432600482082
1482,14.940587043762209,0.7010419446080001,0.15515266014151702,0.11298530273372158,0.7268409968367127
1483,14.950704097747805,0.5244850376543458,0.10453241149939249,0.07387806859219248,0.5398791983361385
1484,14.961971282958984,0.3924720790969739,0.0676773637269271,0.03482453203924085,0.39978407479973516
1485,14.97089409828186,0.30735823271349866,0.04680002862661078,-0.0035896910289394553,0.31092155244997094
1486,14.98084020614624,0.26639056854096077,0.04219926230076335,-0.04068724894590572,0.2727639363498977
1487,14.991154193878174,0.26310754755131915,0.052686223899348676,-0.07579277501220635,0.27882963348843126
1488,15.000990152359009,0.2887520106140758,0.07606872218173305,-0.10838275342629063,0.31766491050838014
1489,15.012537956237791,0.3335957687777544,0.10965344681452434,-0.13826175141046174,0.3773941272036636
1490,15.025314092636108,0.3881138403319428,0.15071133679791332,-0.16568188246249257,0.44810349950980977
1491,15.032316207885742,0.44395116251465183,0.19684551037816778,-0.19135652847380172,0.5219752011769305
1492,15.04133415222168,0.4946338568279247,0.24620860129494854,-0.21635181642417284,0.5933712464740112
1493,15.05146312713623,0.5359959481593446,0.29754006395276916,-0.24185218450967866,0.6590252083587974
1494,15.062857151031494,0.5663099815127266,0.35003204099712215,-0.2688431587436749,0.7179875130452009
1495,15.07172918319702,0.5861385113085148,0.4030728434355049,-0.297805154326233,0.7711770104829477
1496,15.081865072250366,0.5979587551516757,0.4559520797408235,-0.32850537387616685,0.8205868342521979
1497,15.091734170913696,0.6056207569445712,0.5076306228384081,-0.3599439701508094,0.8683461361308359
1498,15.103178024291992,0.6136848623617746,0.55667104481974,-0.39049270382440077,0.9159565023366462
1499,15.113348960876465,0.6267007577800733,0.6013910895313924,-0.41820523442084534,0.9640128113603404
1500,15.124690055847168,0.6485442699367729,0.6402406609220693,-0.44117066402724237,1.0124965820999041
1501,15.132058143615724,0.6819514229292685,0.6723234326551928,-0.45774893307377384,1.061419157101799
1502,15.14224100112915,0.7283386844606069,0.697953899550976,-0.4666436249038188,1.1114734175155057
1503,15.152326107025146,0.7879058834499717,0.7191998286329796,-0.46693534332359293,1.1645053411322377
1504,15.1635422706604,0.8599355626070122,0.7404305515741871,-0.4582699802785112,1.223821044256537
1505,15.172499179840088,0.9431631376415206,0.7688770370895232,-0.44132180874895305,1.2944085681294022
1506,15.182640075683594,1.0361192347550296,0.815131539446075,-0.4184658437509272,1.3831471930402968
1507,15.192614078521729,1.1374393648563195,0.8934447750527655,-0.3943768301269865,1.4991814296257955
1508,15.20412302017212,1.2462388059875436,1.0216279162622919,-0.37616629969829696,1.6547917832357035
1509,15.2141752243042,1.362663169944723,1.2203460204992291,-0.3727908017840211,1.8668337650596745
1510,15.224555015563965,1.4886146314411806,1.5116574787505839,-0.39373924060771004,2.157802688754852
1511,15.232845306396484,1.628508883184755,1.9168038738760393,-0.4472504598388289,2.5546450335308606
1512,15.242979049682615,1.7898435687828156,2.4533926454697452,-0.5384599646928945,3.0842526821152827
1513,15.25311803817749,1.9833723341281335,3.132205089923967,-0.667943909064012,3.767044412637871
1514,15.264387130737305,2.2227402921647887,3.9539535721217174,-0.8310558551532679,4.611396436145068
1515,15.273244142532349,2.52351771172412,4.90641071168463,-1.0181978635178912,5.610502170251021
1516,15.283102989196776,2.9016628592313305,5.962363829152244,-1.215862480481109,6.741494741618302
1517,15.293310165405272,3.3715356820479183,7.078769900794238,-1.4081168083401734,7.966117568153441
1518,15.30484414100647,3.9436180171818838,8.197379088741334,-1.5782607092537952,9.232554026722486
1519,15.3149151802063,4.62204282949278,9.247051050867029,-1.7106065056433304,10.47842582032988
1520,15.324772119522097,5.4019848165302315,10.14796580836317,-1.7924646976899468,11.635101189856314
1521,15.334026098251345,6.267077668523869,10.817798422319878,-1.8162390858876643,12.633279448597783
1522,15.344380140304564,7.187347938090404,11.179605872277726,-1.781114708665452,13.409471557375534
1523,15.35448718070984,8.11854854395804,11.17068215080916,-1.6936121789097582,13.912702555131444
1524,15.36556625366211,9.00395968562145,10.751098495015382,-1.5666315847360934,14.110696063345388
1525,15.374626159667969,9.779402206846083,9.910374876450335,-1.4173562007374614,13.995039703938426
1526,15.384011268615724,10.381284618817055,8.671068342208477,-1.264949991995801,13.585234448267274
1527,15.394318103790283,10.756305985583648,7.088812299106612,-1.1287943491310457,12.931494691260479
1528,15.405436992645264,10.870564995278059,5.248807481309726,-1.0271687850851434,12.115041849101097
1529,15.415874004364014,10.71575306500446,3.258823526774592,-0.9757346750567597,11.242746669961045
1530,15.424368143081663,10.310893863235053,1.2389965998676222,-0.985597009166471,10.431732660390589
1531,15.43429708480835,9.699343116277907,-0.6906837444712582,-1.0614768598284237,9.78166826497994
1532,15.44447898864746,8.941921197712494,-2.423576921309521,-1.20066847280393,9.342017158044055
1533,15.454485177993774,8.107794197841281,-3.878026996626551,-1.3931168412130954,9.094844400779193
1534,15.465750217437744,7.264977324924105,-5.005029327277352,-1.6227762681681455,8.970151443264351
1535,15.474767208099363,6.47211190717003,-5.790295182512412,-1.87012586765526,8.883305781094776
1536,15.4848051071167,5.772635594386009,-6.250554073805248,-2.114967702888315,8.767316369300037
1537,15.494968175888062,5.191901195119058,-6.42546843615741,-2.3383738613525544,8.585480473415027
1538,15.50766897201538,4.737299986373471,-6.367593701820255,-2.5235571042563065,8.328061069108315
1539,15.516420125961304,4.400972608669576,-6.132992302407647,-2.6563586132741426,8.002399363063997
1540,15.52511215209961,4.164261244704385,-5.7743147343874694,-2.7259141668332436,7.623279504967224
1541,15.53527021408081,4.00277469958873,-5.336855598014408,-2.7254466525153633,7.206406346122356
1542,15.545371055603027,3.890950764758716,-4.8569892336408715,-2.6528522547729048,6.765165730056689
1543,15.555578231811523,3.805334195273914,-4.3619599472594475,-2.5108025299720587,6.309626951233384
1544,15.567155122756958,3.7262632118124226,-3.870237287425294,-2.3062594467750714,5.846589332296479
1545,15.575819969177246,3.6380836773362493,-3.392164541044471,-2.049543043882563,5.37987544517039
1546,15.585846185684204,3.5283424279080986,-2.9309994671041992,-1.7532813527651367,4.9105960602248135
1547,15.595952033996582,3.3866439128077923,-2.484466119355004,-1.4315264557269742,4.437476409382614
1548,15.605967044830322,3.2039083935639914,-2.046691756581103,-1.0990531869129747,3.9575110926528563
1549,15.624995231628418,2.972549631335837,-1.6101594307322988,-0.7706201829427871,3.4673505980055945
1550,15.627095222473145,2.687623961871788,-1.1672949082692594,-0.45998329321779896,2.966055392830389
1551,15.636247158050535,2.348490184366957,-0.7115299138628286,-0.17866384866488833,2.460406823110629
1552,15.646231174468994,1.9602054012974226,-0.23794448342558597,0.0652897457130767,1.9756734404661962
1553,15.656447172164915,1.5339004963474812,0.25628694783573575,0.2681453726863857,1.57811142611006
1554,15.66790509223938,1.0857164807423743,0.7714654384290451,0.4305068916706831,1.3997411842987542
1555,15.676505088806152,0.6343992880808152,1.304921367288808,0.5562907893626148,1.5539439094941678
1556,15.686683177947998,0.19810778804351392,1.8506694853823162,0.6508484306717366,1.9717575711827768
1557,15.69660210609436,-0.20882684686217173,2.3993252523368502,0.7187800641849152,2.513367282977432
1558,15.706727981567385,-0.5785656221413722,2.9383699600303697,0.7620769429226734,3.0902293552529523
1559,15.726037979125977,-0.9114668632648287,3.452762442576444,0.7790616813811373,3.655034532134092
1560,15.728009223937988,-1.2166460239727463,3.9258571239889597,0.7643222916881398,4.180522727027682
1561,15.736931085586548,-1.5113223932359277,4.340580379877606,0.7095805373402329,4.650616942884766
1562,15.746994018554688,-1.818989410181621,4.6808023242330234,0.6052610874765159,5.058159137167534
1563,15.757176160812378,-2.1665788592064796,4.932815380698685,0.4424482412021638,5.40578319759134
1564,15.768720149993896,-2.5809252470778152,5.086787124432924,0.21492934017884952,5.708132181508236
1565,15.777379035949709,-3.0849356134128474,5.137973231698819,-0.0788959797293131,5.993481562845918
1566,15.78739595413208,-3.693931384838796,5.087408615479187,-0.43440290761236483,6.302028354656221
1567,15.797516107559204,-4.41266165546054,4.941862443484459,-0.8396550916149766,6.678218921895934
1568,15.807537078857422,-5.23345905723735,4.713057276089266,-1.2752173427593716,7.157386524615805
1569,15.82627296447754,-6.1358637595351455,4.416364325736227,-1.7152236631883693,7.752102305050785
1570,15.828258991241457,-7.087767159124226,4.06928570388544,-2.129747895814871,8.445789219577659
1571,15.83784008026123,-8.047804409126936,3.690030796062043,-2.488095010730975,9.196417773561269
1572,15.847854137420654,-8.968497907265265,3.2964024803562015,-2.762359843266012,9.946399143851435
1573,15.858004093170166,-9.79962833135235,2.905058192124232,-2.930577452261706,10.632984657939485
1574,15.869040966033936,-10.491463567277052,2.5311031068532586,-2.9789404006301274,11.196042900575646
1575,15.8782320022583,-10.997688969912916,2.187964174406608,-2.9028222502759613,11.582863502784111
1576,15.88825511932373,-11.27804938176963,1.8874980797390977,-2.7066676613360214,11.750876422104666
1577,15.899733066558838,-11.300794250142781,1.6401926735474641,-2.4030564851826255,11.66931288300203
1578,15.908908128738403,-11.045006598184845,1.4551654152604563,-2.0113273627491464,11.320561598253875
1579,15.91952109336853,-10.50280948779762,1.3396420524949288,-1.5560873440833285,10.701637995568754
1580,15.92849826812744,-9.681330126436935,1.297871237872326,-1.0657716954873597,9.825909223784516
1581,15.938613176345823,-8.604223263294239,1.3298677225403377,-0.5711841689373066,8.725105012486267
1582,15.948970079421995,-7.312529073515336,1.430625768570385,-0.10380859634789298,7.451882162607
1583,15.958791255950928,-5.864614228112404,1.5903068060658017,0.30622314571649334,6.084122648087411
1584,15.970093250274658,-4.33483455328829,1.7955513014565374,0.632448971701842,4.7344257077655225
1585,15.978971004486084,-2.81035250352645,2.031601035855134,0.8546848567167978,3.5715501070636053
1586,15.988976955413818,-1.3854848507694766,2.284079449282416,0.9621654369153398,2.8394276765468898
1587,16.007259130477905,-0.15349787029057282,2.5386979497589373,0.957026514620255,2.7174341990157123
1588,16.00924301147461,0.8031426193189974,2.778552468007666,0.8564028850192231,3.0164246693573036
1589,16.020487070083618,1.422337309873719,2.9813954236920943,0.6906929642919813,3.374732414043136
1590,16.029248237609863,1.6701975430220197,3.1199207370820807,0.4976576440963106,3.573671553055635
1591,16.039369106292725,1.546094352795398,3.1658233604608,0.31487569136962784,3.5372294240550235
1592,16.049376964569092,1.084054302647486,3.0959741826226255,0.17329299346603708,3.28485316751583
1593,16.059693098068237,0.34995811300956503,2.8984266689401057,0.09303103088996677,2.9209591932775956
1594,16.070924282073975,-0.56537793030374,2.5765760366005437,0.08179141207853395,2.6391449584190156
1595,16.079730987548828,-1.5565027947273333,2.150455209643981,0.13580098738613647,2.658119723950369
1596,16.089756965637207,-2.5156960054100463,1.6545630228244446,0.2423537430779371,3.0207682011233357
1597,16.10805320739746,-3.3455172525275065,1.1323112952762004,0.38265152187792695,3.552609849612642
1598,16.110079288482666,-3.969413594955119,0.6284265773154145,0.534537399916916,4.054244008788917
1599,16.1211941242218,-4.338700306105521,0.1816482474687225,0.6755836267835436,4.394738862411122
1600,16.130115032196045,-4.4351713159809805,-0.18020815692511163,0.7867092401272769,4.508007432383453
1601,16.14018726348877,-4.269517853519798,-0.442143220725219,0.8556357162054203,4.3768008645589465
1602,16.150535106658936,-3.876443610982693,-0.6014298136772922,0.8789845641439102,4.02009287876682
1603,16.16044521331787,-3.3078324580793033,-0.665615240595541,0.8619719308109663,3.4824983601922934
1604,16.171595096588135,-2.625353200483631,-0.6498009025605707,0.8155616983099054,2.824864868273935
1605,16.18055820465088,-1.8934292248333486,-0.5736743854238673,0.7522609015624849,2.1166182919846626
1606,16.190627098083496,-1.172942346127677,-0.4586519647430996,0.6824685151421434,1.4324519699670653
1607,16.20217514038086,-0.5158329533649086,-0.3253862968075245,0.6128077944619004,0.8645769317305066
1608,16.2109112739563,0.03904149602433758,-0.19181051421787107,0.5465622721570405,0.5805564822838595
1609,16.22548198699951,0.4681901889441789,-0.07184717048518126,0.4851003629412361,0.6780017928118123
1610,16.230953216552734,0.7634807083133772,0.02516750849567928,0.42892442122389385,0.8760778244955345
1611,16.241080284118652,0.9300344846190388,0.09441553846174318,0.3778643234664773,1.008295533775887
1612,16.250909090042114,0.9828730418151339,0.1350432571764865,0.3309694060760449,1.045856990890293
1613,16.261168956756592,0.9433271669010004,0.14929871038451334,0.28680591310685205,0.9972030287403875
1614,16.272699117660522,0.8358560447022039,0.14152642444170108,0.24420763001125842,0.8822258343735921
1615,16.281352043151855,0.6854341799933052,0.11718573309860275,0.20292242784400558,0.7243825114309824
1616,16.29145097732544,0.515438568944846,0.08205208654080111,0.1636564265355101,0.5469852733008291
1617,16.307661056518555,0.3460290992350035,0.04168951008532,0.12754691010475225,0.3711365881260047
1618,16.311535120010376,0.19312140652376658,0.0011634778657967798,0.09549930761313419,0.21544685909302586
1619,16.323033094406128,0.06802820854429968,-0.03510990834996559,0.0678071089094788,0.10226605908487739
1620,16.3317711353302,-0.022289648845299704,-0.06346876272850716,0.04418491931711713,0.08048241660757001
1621,16.341920137405396,-0.07456481585117283,-0.08109921576627216,0.024061579859844466,0.11276503973384373
1622,16.351969242095947,-0.08842853146432776,-0.0861165431778726,0.006878364163257332,0.12362433449530227
1623,16.362024307250977,-0.06570720240991083,-0.07762890117474062,-0.007764753674723681,0.10199987326346917
1624,16.373566150665283,-0.009913860587778647,-0.05577954232302464,-0.020097126209629394,0.06011269795480636
1625,16.38239097595215,0.07409188248093165,-0.021747128746731553,-0.030194914150693496,0.08291126279862619
1626,16.392276287078857,0.1803757794391392,0.022331792271185712,-0.03797479660818342,0.18567772061222984
1627,16.40812110900879,0.30223699132030174,0.07354487207038309,-0.043204683914849884,0.3140425000575229
1628,16.412353038787842,0.43260725114931464,0.1284825165083903,-0.045597931278969474,0.45358126298626644
1629,16.42392921447754,0.5645317590723399,0.18356278598295744,-0.044999229066887844,0.5953287612871981
1630,16.43251609802246,0.691680118346961,0.23532983093219959,-0.0415875505147093,0.7317998632145657
1631,16.442674160003662,0.8088176311694095,0.28066931067004486,-0.03599146408604644,0.8568877452324489
1632,16.452821254730225,0.9121552593849956,0.31692961631343086,-0.02926931970512099,0.9660891739359715
1633,16.462903022766113,0.9994991672019989,0.34197991889726687,-0.022799482887135247,1.0566308090276335
1634,16.474233150482178,1.070160328259003,0.3542557981231186,-0.018167778521087242,1.1274175654386693
1635,16.482985019683838,1.1246473590956427,0.35284279328918633,-0.017105732574617276,1.1788224315747615
1636,16.49312400817871,1.1642147740007311,0.3376314876064133,-0.021466845434452504,1.2123744829374294
1637,16.507944107055664,1.1903645572881918,0.3095468667781843,-0.033175168794430845,1.2304014116558233
1638,16.513209104537964,1.2044136319199803,0.2708228586594867,-0.05406299798438185,1.2356698690500767
1639,16.524596214294434,1.2072388217031198,0.2252791809350269,-0.08555347032922445,1.231054701577175
1640,16.53385019302368,1.199274824860154,0.17856660563691276,-0.12824969117627402,1.2192596612202222
1641,16.543519020080566,1.1807702696143176,0.1383618224230898,-0.1816068822466151,1.2026402135254928
1642,16.55364418029785,1.1522392549393767,0.11449230627418923,-0.24387699499854038,1.1833172767726967
1643,16.563635110855103,1.115023408879361,0.11895030885721185,-0.3123906037489968,1.1640508011409292
1644,16.57513427734375,1.0718960642007718,0.1657266521949921,-0.3840814288656739,1.1506281065993316
1645,16.584266185760498,1.027649441938669,0.2703794885111083,-0.45609015567474037,1.156367879797686
1646,16.593852043151855,0.9895940939382576,0.44927253965076747,-0.5263150215902295,1.2075387313015078
1647,16.60746717453003,0.9678969747648214,0.7184683137214949,-0.5938128363651048,1.3437391697099077
1648,16.613924980163574,0.9756988364698652,1.0922990306580123,-0.6589413909790078,1.6060227733785195
1649,16.625277996063232,1.0289497564007957,1.58163945730465,-0.7231370260331387,2.020704860319848
1650,16.63432502746582,1.145865556723409,2.1919265760448434,-0.7883080113385905,2.5959544506014205
1651,16.644302129745483,1.345886692713953,2.9210615874545955,-0.8559376638283567,3.328158811067646
1652,16.65437602996826,1.6480853035659755,3.757442623005573,-0.9260438488748176,4.206199881490185
1653,16.664438247680664,2.06909093765255,4.678432276621245,-0.99619392555847,5.21164736072261
1654,16.675831079483032,2.6206686930686867,5.649575514297409,-1.0609337598605473,6.317530240006059
1655,16.68466329574585,3.3070670639943436,6.6248922515533195,-1.112084240132234,7.487497663946071
1656,16.69597625732422,4.122335620631446,7.548491229093695,-1.1400342909266326,8.67600420639132
1657,16.707824230194092,5.048059950973979,8.357520586110448,-1.1355616293192254,9.82957577059506
1658,16.714827060699463,6.052107063553637,8.986273160261673,-1.0915381929853494,10.889102848550053
1659,16.72611117362976,7.088819768407196,9.37129106146645,-1.0043372224554572,11.79326736422486
1660,16.734864234924316,8.100879092598829,9.457375514753311,-0.8751928188989853,12.483275057860924
1661,16.745687007904053,9.02308209966778,9.204177030574844,-0.711608033166601,12.908883428878498
1662,16.7557692527771,9.788386101138055,8.592527342100368,-0.5283321376274671,13.035457929714056
1663,16.765274047851562,10.336168816146747,7.629231393198301,-0.34696663429760594,12.851534666807803
1664,16.77650499343872,10.621566315398328,6.349049249763519,-0.1934105836663165,12.376005212595915
1665,16.78548002243042,10.623706153537217,4.813138049614323,-0.09319476905895183,11.663537867488134
1666,16.796643257141113,10.35052856778041,3.1039290302936107,-0.06571707207224495,10.806115666191047
1667,16.807228088378906,9.838775624432062,1.3169434154927802,-0.11899319387850636,9.927235522929719
1668,16.81557321548462,9.149142755705187,-0.4494655583508547,-0.2468073655913937,9.163500768163143
1669,16.82693910598755,8.357923825250715,-2.1048425933690407,-0.429814404481306,8.629599842046773
1670,16.83574414253235,7.547147500703289,-3.5757786892965004,-0.6407171106122227,8.375926638171455
1671,16.845829010009766,6.794990010985836,-4.811614300698024,-0.8517413600375892,8.369527153458414
1672,16.85596799850464,6.167543354086737,-5.7857554614881685,-1.0416117395918374,8.520476060686702
1673,16.866164207458496,5.712419239343916,-6.492880464776462,-1.1995274534549796,8.730870312144978
1674,16.87739324569702,5.454484562438865,-6.943377256396648,-1.324907355697995,8.928452781289309
1675,16.886380195617676,5.39409730242186,-7.157056078167565,-1.4236187604857276,9.07449325247625
1676,16.897552013397217,5.508153903030356,-7.158145056819182,-1.503123393690954,9.156319130010402
1677,16.90718698501587,5.753867342651851,-6.9725206975292675,-1.5690517433487723,9.175236108548669
1678,16.916335105895996,6.074679193572875,-6.626727398930218,-1.6241183328112383,9.135261555288562
1679,16.927725076675415,6.407413059172284,-6.147664368881902,-1.6686785105960134,9.035109699112489
1680,16.936635971069336,6.689758306206181,-5.562083853380995,-1.7018278116215646,8.864866659341516
1681,16.946712970733643,6.867260822515438,-4.8956775284879575,-1.7223608853363246,8.607755612628294
1682,16.956892013549805,6.899070126419287,-4.171984268881044,-1.729311518509397,8.245795272567177
1683,16.967366218566895,6.761757151507894,-3.4114786369632855,-1.7220483394679977,7.766916811057622
1684,16.978145122528076,6.450680101848418,-2.63110386556014,-1.7001053613712647,7.171076597520901
1685,16.987112045288086,5.978730688447999,-1.8443386977194394,-1.6629339987543763,6.473959789889688
1686,16.99844717979431,5.372790431136295,-1.0617022875240343,-1.6095662932642336,5.7083090680740005
1687,17.00748920440674,4.6686790401444975,-0.2914564050128491,-1.5380969238190152,4.924149973647134
1688,17.017593145370483,3.9055800239505265,0.459734212188486,-1.4450728524160323,4.189647529104062
1689,17.028732299804688,3.120823017327085,1.186217368147736,-1.3250840058955666,3.5920043948545097
1690,17.037424087524414,2.3456286321354627,1.8826527980022827,-1.1708678051190091,3.227582168556474
1691,17.04752826690674,1.6021546443637231,2.5430596192933583,-0.9741377847521674,3.1595879724132683
1692,17.05771827697754,0.9019689983554958,3.1598121292845973,-0.727195692775705,3.365527349756649
1693,17.067851066589355,0.24589520963329953,3.72302758809006,-0.42514934308655655,3.7552830572045064
1694,17.079174041748047,-0.3749548328905809,4.220680068874719,-0.06826651984944918,4.237852249458051
1695,17.088004112243652,-0.9772075633038116,4.639451254379985,0.33620694755416014,4.753154497292285
1696,17.09787917137146,-1.5825783815747165,4.966077102427872,0.7734119633103222,5.269216467946404
1697,17.107900142669678,-2.214808149322931,5.188902384188114,1.2217814388605668,5.772593262588709
1698,17.118072032928467,-2.8964177518863945,5.299459710398867,1.6554027715427482,6.262097679820628
1699,17.12952709197998,-3.6454677058074316,5.2939916440017205,2.047372844911391,6.745926021453652
1700,17.138267993927002,-4.472509640486947,5.174790597323484,2.373501816242105,7.239841923833751
1701,17.14835810661316,-5.378005336494977,4.951039861421057,2.6157213688350107,7.763873735972835
1702,17.158480167388916,-6.350607106555499,4.638706964151004,2.764632843785061,8.336126659428304
1703,17.168580055236816,-7.366688214283027,4.259236154066249,2.8207526894013246,8.964699303229658
1704,17.179989099502563,-8.39128200567684,3.8373162825155154,2.7941869527187246,9.640855287659813
1705,17.18876314163208,-9.380234692392438,3.3984807751130766,2.702705153974439,10.336493100297403
1706,17.19883108139038,-10.283143765350035,2.967309753206245,2.568510543009779,11.006598897020032
1707,17.208901166915894,-11.046673170147006,2.566547209234283,2.4143548303024254,11.59505333975996
1708,17.218937158584595,-11.61801118679258,2.216881976826572,2.259803196174726,12.04157216151851
1709,17.23015809059143,-11.948403409391858,1.9368018354535632,2.1182859074291898,12.288314797766061
1710,17.239174127578735,-11.996780295332654,1.741925485709239,1.9952421302907875,12.285684067675373
1711,17.249221086502075,-11.733513523830187,1.6434973125038486,1.8874528848470928,11.997453955845419
1712,17.259325981140137,-11.144287569257674,1.6461448086500716,1.783669635265778,11.405543192900804
1713,17.26935625076294,-10.23394552372095,1.7453814172379607,1.6667107170159767,10.514652723145142
1714,17.28095817565918,-9.02993881983829,1.925635471614526,1.5170587005977176,9.356780117146167
1715,17.28957509994507,-7.584699568260046,2.1598346681838545,1.3175567130241148,7.995530565677796
1716,17.29961609840393,-5.9759350375987506,2.411677617894251,1.0583069595596142,6.530543784931297
1717,17.309560298919678,-4.303598478127636,2.6411633750057355,0.7407044066933601,5.103464201158774
1718,17.31982707977295,-2.6823988551217566,2.812131546762209,0.37977913447207684,3.9048149309838083
1719,17.331085205078125,-1.229855126669253,2.898508558056203,0.004252734754378419,3.1486367811280784
1720,17.33987522125244,-0.05207773737921755,2.8862972297537395,-0.3462951429339549,2.9074635191579445
1721,17.34990119934082,0.7691710017961247,2.771395616446873,-0.6273700742481332,2.9437817349333333
1722,17.36018419265747,1.1855863318229425,2.555904159163503,-0.7976931829644713,2.9282375988267524
1723,17.370334148406982,1.1871104503202003,2.245596423951815,-0.8276744505531953,2.6715125896433918
1724,17.381720066070557,0.8028557410371783,1.8496975705111487,-0.7064273009922065,2.136585588002113
1725,17.390501976013184,0.09832346278178042,1.382530948472218,-0.44588229073511654,1.4559774531249052
1726,17.407453060150146,-0.8312958248222626,0.8655783116547349,-0.08073440008721945,1.2028285851822071
1727,17.410637140274048,-1.8717077151810646,0.3282540076193325,0.33665233973888703,1.9298640528384743
1728,17.420653104782104,-2.9029724030128237,-0.1938329562593477,0.7461236824080663,3.0035846145957765
1729,17.43204927444458,-3.8135679590332563,-0.6633418324251467,1.0920041670145046,4.021914477657036
1730,17.44069004058838,-4.512316467139079,-1.0471916390142393,1.3334708015099304,4.8203479757083265
1731,17.450993061065674,-4.93627678259503,-1.3217720726150022,1.4496247050240119,5.311809641896785
1732,17.460875034332275,-5.054042647617288,-1.4754665708699974,1.4393064533180553,5.458200413346164
1733,17.47098207473755,-4.864785228591643,-1.5083423436254255,1.318042790347074,5.261033049039208
1734,17.48238229751587,-4.393997745959057,-1.4301774864058368,1.1138514423403498,4.753239828760912
1735,17.492626190185547,-3.6874854105954884,-1.257977990767314,0.8620125588753464,3.9903787953361483
1736,17.50789499282837,-2.805229172816277,-1.0135795383556971,0.5986991374608255,3.0422187379919245
1737,17.51116418838501,-1.8160086558232205,-0.7215398531847271,0.35456040674361977,1.9860061127269721
1738,17.521374225616455,-0.792615955838095,-0.40728391515194795,0.15031752422241124,0.903723187197823
1739,17.53279209136963,0.19302908782131076,-0.09530920462709722,-0.004193175042619555,0.21531756999537968
1740,17.54151201248169,1.0752253132933551,0.19264929174659837,-0.10791301475345125,1.0976649956659992
1741,17.551605224609375,1.79989467656942,0.43924912855226583,-0.1651744535675969,1.860065386965796
1742,17.561641216278076,2.32908273024689,0.6324908486557415,-0.18281175413864728,2.420349391186904
1743,17.571839094161987,2.6436281470503813,0.7657561122533498,-0.1685368727133367,2.757454783091536
1744,17.58330011367798,2.743623505741038,0.837213982127632,-0.13031935695926836,2.8714770289735956
1745,17.59340810775757,2.6469073523744506,0.8490933089094751,-0.07608467449836721,2.780803275491146
1746,17.60740327835083,2.386089973345078,0.8070577332501322,-0.013279566388580652,2.5189172063766256
1747,17.612085103988647,2.004508648349976,0.7195753702365599,0.05164443792345745,2.130378084455752
1748,17.622251987457275,1.5513797555976365,0.5971331198976622,0.11351787577075584,1.6662032940419975
1749,17.63396716117859,1.0765264392877505,0.4513381758892562,0.1683663412732628,1.1793907530476695
1750,17.642534255981445,0.6252856346069448,0.2940665489934146,0.2131162503131049,0.7231015117051159
1751,17.652525186538696,0.23426237334470826,0.13672049779839046,0.24533136925725507,0.3657305494827781
1752,17.66251802444458,-0.07152787430460342,-0.010479325197994807,0.2630590330298887,0.2728114878771797
1753,17.672616004943848,-0.2797797326860861,-0.13916822082221922,0.264772400643461,0.4095716257887272
1754,17.684324264526367,-0.390193685556094,-0.24328249583203412,0.2494159680280172,0.5231116612478302
1755,17.694144248962402,-0.4122181478033085,-0.3190760700533026,0.21653179252878868,0.5644637783195487
1756,17.708992958068848,-0.3618215705987238,-0.36473413666638943,0.16639018895226057,0.5400291977105244
1757,17.71291708946228,-0.25798856850359836,-0.37980202519989875,0.10006501596027997,0.4699156171522835
1758,17.723042011260986,-0.1195507480753103,-0.36467153769232763,0.019434913722466918,0.38425958366663127
1759,17.73463010787964,0.037212408213818604,-0.32029121140062716,-0.07287431284413368,0.3305781131564184
1760,17.743158102035522,0.1999594957459765,-0.24817990829714973,-0.17355778523542695,0.3629040804912414
1761,17.753255128860474,0.36060749331405856,-0.1507481095696866,-0.278671520933461,0.48002143009708576
1762,17.763365268707275,0.5147323542642523,-0.031823931557060044,-0.3836682709095208,0.6427779564117532
1763,17.773357152938843,0.6603779337749055,0.10287808162119325,-0.4835107594027305,0.8249033698276881
1764,17.785107135772705,0.7966905618729925,0.24567779039546603,-0.5729471045565782,1.0116035847558418
1765,17.795039176940918,0.9227397233200819,0.38739866306070914,-0.6469678577789961,1.1916768564225746
1766,17.80944299697876,1.0367238501791152,0.5182410298121545,-0.7013630986628494,1.3547251760696428
1767,17.813566207885742,1.1356003742769094,0.628742068874497,-0.733223303014176,1.490812265616787
1768,17.823668003082275,1.2151011456345118,0.7105377589029033,-0.7412002507128896,1.5908213327102179
1769,17.83559513092041,1.270088369809922,0.7567962261561633,-0.7253873922455465,1.6468308546658426
1770,17.843894004821777,1.295196877442044,0.7623759357918103,-0.6868587120403082,1.6524306064448608
1771,17.853997230529785,1.2856531551355133,0.7238823597357787,-0.6271451831478037,1.6031908142177063
1772,17.864120960235596,1.2381054043342823,0.6398056813285203,-0.547970116887731,1.497507112204801
1773,17.874306201934814,1.151309097459596,0.5108472915294426,-0.45132193630919065,1.337972003948541
1774,17.885639190673828,1.0265857298008756,0.3404082060552702,-0.3396749675817366,1.1336379893873605
1775,17.894498109817505,0.8680473903783844,0.13505910146678535,-0.21614388462132086,0.9046907823620917
1776,17.9087872505188,0.6826129019001613,-0.0952548407822198,-0.08451047912071237,0.6943888533193903
1777,17.914402961730957,0.479823506319177,-0.33744320032239733,0.050851126756032525,0.5887990724794061
1778,17.924626111984253,0.2714074760556089,-0.5759390253231608,0.1851308609674655,0.6630544582699247
1779,17.935779094696045,0.0705032731600424,-0.7936505350917495,0.31327105037704306,0.8561487221166868
1780,17.94481611251831,-0.10948723616379463,-0.9729474078230128,0.4301396078605343,1.0694083389999915
1781,17.954869270324707,-0.25630014088828007,-1.0964443081802535,0.5307654616120787,1.2448260353963159
1782,17.964855194091797,-0.36022990791824344,-1.1474163191857771,0.6107555313705229,1.3488336128642084
1783,17.975107192993164,-0.4152589468664922,-1.1097595401036942,0.6668314634450843,1.3596582035365152
1784,17.986350059509277,-0.41952839549621207,-0.9675345881207904,0.6972601527362356,1.2642384958667618
1785,17.99520206451416,-0.374839739359953,-0.7043705870914562,0.7020204592217593,1.0627678388664807
1786,18.00936007499695,-0.2851772673856063,-0.3032895495218395,0.6827278673185445,0.7996423985107406
1787,18.015281200408936,-0.15466752314428459,0.252382668744987,0.6424560951668356,0.7073675765932784
1788,18.025352954864506,0.014355906138288056,0.9765717163644438,0.5856479326563744,1.1388072313911308
1789,18.03672695159912,0.22257154463265152,1.8765146031395075,0.5182698841472136,1.9594511530247327
1790,18.04553508758545,0.4738142279837466,2.9479287488377053,0.4481387519045277,3.0192072091564404
1791,18.05568599700928,0.7740984385153602,4.170342976975893,0.3850757743610586,4.259022457104898
1792,18.06573510169983,1.1297878515772217,5.5038063938795645,0.34053762307560786,5.628878332635289
1793,18.075908184051517,1.5453882556125016,6.888016080118554,0.326614205356224,7.066800352330416
1794,18.087538242340088,2.021446390084777,8.244509041658263,0.3544798112035465,8.496106801501647
1795,18.09614109992981,2.552888191014328,9.482114067719763,0.43248406178681226,9.82928114221834
1796,18.111019134521484,3.127984692151234,10.505386107233543,0.5641868998003127,10.975688240574906
1797,18.11645603179932,3.7280976321371324,11.225189968509623,0.7466959815014226,11.851630970995762
1798,18.126537084579468,4.32841940264119,11.57000613482915,0.9696009364875976,12.391141289694929
1799,18.13810110092163,4.899967818986794,11.496052597304143,1.2148137082894002,12.555663355352332
1800,18.14633512496948,5.412941803911105,10.994160785232053,1.457680571527112,12.340840449202407
1801,18.156336307525635,5.841102362017866,10.091850467358366,1.669496237279066,11.779267394255932
1802,18.166354179382324,6.166311877391436,8.850315235406246,1.8211625776044906,10.939292256329457
1803,18.17664408683777,6.3820659960668165,7.357340163475228,1.8875669930507497,9.920893599494587
1804,18.188004970550537,6.494918795377305,5.717617003193067,1.8520256371156154,8.849017646851053
1805,18.196930170059204,6.5231752842886275,4.0415758392062395,1.709663318654449,7.8618763483510845
1806,18.21010398864746,6.49312713556743,2.433624988663548,1.4685986679199894,7.088018949714096
1807,18.217247009277344,6.434022036643184,0.9811363635002526,1.1485583073325136,6.608967719480489
1808,18.22705912590027,6.373139283727772,-0.2538456298169558,0.7772814063241059,6.425380013523596
1809,18.238267183303837,6.33173223297842,-1.2383176163351495,0.38545493089665944,6.463191092085736
1810,18.247128009796143,6.3220835284167425,-1.9668482033831074,0.0014140513951496738,6.620969264010443
1811,18.25717401504517,6.346077842417181,-2.4560531398214875,-0.35272339473637426,6.8139059870855005
1812,18.267632961273197,6.3958724729836876,-2.7372244455441836,-0.6624012291562132,6.988444586912226
1813,18.27742409706116,6.456647501336784,-2.8491574509012625,-0.919894219066478,7.117035935754199
1814,18.2900230884552,6.510504464973732,-2.8323242834099296,-1.1228981115232832,7.188158971788188
1815,18.297622203826904,6.540326921748086,-2.7247716832928672,-1.2733328444790917,7.198724435776567
1816,18.31090807914734,6.532832795956967,-2.559686587664321,-1.3762901784294657,7.150110098609737
1817,18.31758117675781,6.4804766036773485,-2.3642990702829683,-1.4388146276159064,7.04674922479805
1818,18.327818155288696,6.382034599636421,-2.1596712487321668,-1.4685624861313453,6.895739359142648
1819,18.33909797668457,6.241825884587516,-1.9609973761224806,-1.4726415941562117,6.706308548486636
1820,18.34797096252441,6.067749928897792,-1.7781918947701068,-1.4568748775774127,6.48860848126788
1821,18.358103275299072,5.868606580548164,-1.6166224306102877,-1.4255614811841284,6.251898656971449
1822,18.36790704727173,5.651369061890061,-1.47786079910388,-1.3816873106924663,6.002591493658776
1823,18.3782651424408,5.419107377620904,-1.3603566273709824,-1.3274460607393188,5.742770060518687
1824,18.391160011291504,5.170085366828533,-1.259996543310176,-1.2648504384067722,5.469663666166863
1825,18.39842796325684,4.898216941277024,-1.1705577965003091,-1.196193387872397,5.176254763818194
1826,18.412318229675293,4.594681613463064,-1.0840873742472381,-1.1241965699602903,4.85285096536132
1827,18.4184889793396,4.250223669042327,-0.9912612779645963,-1.05180640532045,4.489242349478668
1828,18.428500175476078,3.8575683264315255,-0.8818091823344937,-0.981681948409654,4.077023457741018
1829,18.439985275268555,3.413431383629496,-0.74508125320398,-0.9154470119744402,3.6117451621557852
1830,18.448912143707275,2.9197164789650785,-0.5707560658372909,-0.8528221879928092,3.0948041115009426
1831,18.45893430709839,2.3836951659345145,-0.3496031516788548,-0.7908642395762862,2.535683586965049
1832,18.468959093093872,1.8172365590235293,-0.07421087232761964,-0.7236476676204783,1.957427370779274
1833,18.479076147079468,1.2353851026875216,0.260341866720254,-0.6426799775267472,1.4166833778312728
1834,18.49170207977295,0.6546613466540587,0.6558584040917514,-0.5381036131805742,1.0715816457641825
1835,18.49934411048889,0.09137364532605445,1.1104887155264558,-0.40043568503834165,1.184011430782615
1836,18.51412415504456,-0.4399336503372319,1.6184156730969288,-0.2224187204827021,1.6918277083810838
1837,18.519402027130127,-0.9278983838055087,2.169881260388504,-0.0005688992751521982,2.359953478037324
1838,18.529407024383545,-1.3656488353521044,2.7515288657047603,0.26386886106462126,3.083104704051522
1839,18.540951251983643,-1.7519364074358443,3.346880947619048,0.5647131844835771,3.8196589159196104
1840,18.549664974212646,-2.091893584390603,3.936752034653486,0.8914005005996408,4.546276520762042
1841,18.55980610847473,-2.397130410260052,4.499535010502223,1.230160384252557,5.24455375465951
1842,18.569876194000244,-2.6849189540417835,5.011494317360081,1.565541251562771,5.897014879839624
1843,18.5799560546875,-2.9764063228364104,5.447358411125963,1.8819556143621452,6.486483268483358
1844,18.59294414520264,-3.294071592586812,5.781544969704485,2.1649239168701433,6.99743277635727
1845,18.60802316665649,-3.658837938562421,5.990212348803946,2.401790437779603,7.418782673150395
1846,18.615005016326904,-4.087245825472136,6.054070382141302,2.5818979039357606,7.747486264338118
1847,18.620265007019043,-4.58891806903728,5.961645016940891,2.6964867303662565,7.991897211513315
1848,18.63032817840576,-5.164359369603302,5.712500113705234,2.738755800936648,8.17337436954015
1849,18.64165711402893,-5.803095268302372,5.319741777435138,2.704418468198556,8.324028262969533
1850,18.65077495574951,-6.4823210013293036,4.811067269543068,2.5927277865592244,8.478743492495797
1851,18.66061925888061,-7.166479684103683,4.227772138398098,2.4075532995962736,8.661916716713625
1852,18.67062330245972,-7.808311761620835,3.621433798127363,2.157903019286547,8.87361599132684
1853,18.68066906929016,-8.35179716249068,3.048427954605656,1.8573761797087334,9.082690961975862
1854,18.69204998016357,-8.737092815395052,2.563043659451454,1.522390395827791,9.231665948375236
1855,18.70908617973328,-8.907166653371874,2.2104791246594377,1.169585209142664,9.251581773563933
1856,18.71593117713928,-8.815460188384593,2.0210053509417856,0.8132996825491847,9.0806529134839
1857,18.721116065979004,-8.433660311322528,2.00614316418346,0.4640644273162733,8.681393461575004
1858,18.731064081192017,-7.758543993240833,2.157269362206588,0.1285592465010575,8.05390237562075
1859,18.742533206939697,-6.816844893601353,2.4468275153829997,-0.18913152962034027,7.245143886007421
1860,18.751080989837646,-5.667093006251396,2.8321408863733866,-0.4854327454853034,6.353944451453815
1861,18.761300086975098,-4.3972256515982755,3.2614890903569895,-0.7547113206598879,5.526526367902693
1862,18.771414279937744,-3.116689099806373,3.6813032927118727,-0.9864919777072569,4.923302885245221
1863,18.781509160995483,-1.9429213006882495,4.042401414713969,-1.163448277593979,4.633526116575369
1864,18.792696952819824,-0.9849232338260975,4.30335512079544,-1.2622389789183779,4.591534200254606
1865,18.8081271648407,-0.32850064097706244,4.430819322450934,-1.2585757999457905,4.617800946720862
1866,18.81436920166016,-0.026222020759201235,4.398796478038142,-1.135231979821648,4.5430000767756145
1867,18.82184910774231,-0.09219843786736408,4.189566438604284,-0.8897925788647871,4.2840049403364855
1868,18.831849098205566,-0.5008184694571285,3.7974816184809517,-0.5391757097207321,3.8681256737602183
1869,18.843228101730347,-1.1894401249464746,3.2341340303647996,-0.1190081460809207,3.44797820121154
1870,18.852116107940677,-2.0656689115566986,2.5316958719183016,0.3227863045745134,3.2833920019517735
1871,18.86222815513611,-3.01923470946025,1.7415626475450785,0.73673168278548,3.5625261063680176
1872,18.87228107452393,-3.9368690779081428,0.9274655225106118,1.0830899083207548,4.187148693507487
1873,18.88237309455872,-4.717156971782376,0.1548708393817154,1.3392401899333568,4.906028858420893
1874,18.893697261810303,-5.282365347797396,-0.5197640124810166,1.5007226128083189,5.515950204350588
1875,18.908210277557373,-5.585532093175766,-1.05650717811461,1.576936713161644,5.899246187320987
1876,18.914627075195312,-5.612393501725574,-1.4347948065184473,1.5846649078779158,6.005727251989012
1877,18.92288017272949,-5.378595824398183,-1.6523551648606127,1.5423718546109153,5.834250729182886
1878,18.932753086090088,-4.9233544207614415,-1.7218964588031669,1.4667179561175767,5.418081554394307
1879,18.944111108779907,-4.301204251054091,-1.6668132420833082,1.37123679352748,4.812371009927807
1880,18.9529242515564,-3.573504332630439,-1.516602578935387,1.2662426792799215,4.083305905830713
1881,18.96292018890381,-2.8010163783447752,-1.3025985009563505,1.1590585090926457,3.2993745216251944
1882,18.973003149032596,-2.038330494309438,-1.0545987400705417,1.0542478231435402,2.5255510644596013
1883,18.983118057250977,-1.3303211673209105,-0.798645160813408,0.953878934026006,1.8213932913819941
1884,18.994506120681763,-0.7104038278399584,-0.5558047231453049,0.8578333153749566,1.2447772836324913
1885,19.00821614265442,-0.2001656172753309,-0.34159836217845674,0.7642825702428473,0.8607459338034837
1886,19.014726161956787,0.19009349235421533,-0.1658697732146492,0.6705675608919148,0.7164559799612487
1887,19.02334308624268,0.46023382599732543,-0.03310786215078928,0.5743883896081715,0.7367722356637775
1888,19.0333411693573,0.6186790521507152,0.05678191949335369,0.4748235791861099,0.7819497345114742
1889,19.044783115386963,0.6803944665799273,0.10742550972747998,0.3727841741876984,0.7832272408551665
1890,19.053621292114254,0.6645664734263617,0.12486195712212317,0.2708468121983399,0.7284209645642558
1891,19.06368112564087,0.5922050775367244,0.11649995627826847,0.17260025820410557,0.6277499046636646
1892,19.073756217956543,0.48394710105013367,0.09024547150962821,0.08171718105421352,0.4990257903378046
1893,19.09265899658203,0.3583602091272209,0.05388650145981193,0.0010379648366606845,0.36239049642103743
1894,19.09684419631958,0.23098626226554958,0.014748828270507552,-0.06804348867920468,0.24125110910086867
1895,19.10405302047729,0.1141721634464839,-0.020477975040700744,-0.12572664467273512,0.17106086504072868
1896,19.114047050476078,0.017504863958945398,-0.04588442119152033,-0.17348987935113258,0.18030679024255455
1897,19.124170303344727,-0.05146936782008669,-0.056537359870572804,-0.21343540197486172,0.226716209612601
1898,19.13444423675537,-0.08657793717277143,-0.04874586148116924,-0.2474740690381312,0.2666745452099308
1899,19.14547109603882,-0.08268858854101903,-0.020388088972259064,-0.27658401239373825,0.2893990199683929
1900,19.15430498123169,-0.035881723408490454,0.028733385095170705,-0.3004049665489623,0.30390171013186806
1901,19.164637088775635,0.055868430046671004,0.09658684654633534,-0.317360423898989,0.33640442782310565
1902,19.17464518547058,0.19170963203224187,0.17878264765793603,-0.3252930503967715,0.4177695378482684
1903,19.18587207794189,0.367007424826783,0.2687606124470424,-0.322343043862099,0.5575228736179164
1904,19.195955276489254,0.5729321436649347,0.35837168957763,-0.3077048038088504,0.7425387231803239
1905,19.207869052886963,0.7967844606464155,0.43877954054181595,-0.2820356547799938,0.9523324380135679
1906,19.214803218841556,1.0230657626569948,0.501489126266007,-0.2474599096807835,1.1659293740974206
1907,19.225001096725464,1.2351091753215604,0.5393558469586417,-0.20720071017577957,1.3635730779497395
1908,19.2349271774292,1.416965012175223,0.5475619817670193,-0.16501021138172198,1.5280190900200155
1909,19.24637508392334,1.5551901069591834,0.5246038752988196,-0.12471328588938373,1.6460191063409875
1910,19.25534009933472,1.6402664516389727,0.47328725151105777,-0.09009519698305837,1.709559007269013
1911,19.26537799835205,1.6675392753863942,0.40164674985814186,-0.06509175536250932,1.716462724105584
1912,19.27548217773437,1.637701098213685,0.32364581299665707,-0.05405771370171033,1.670249602835227
1913,19.286561012268063,1.5568785469833515,0.25949511268160136,-0.061877181173423376,1.5795687098422142
1914,19.29678010940552,1.4363399261919252,0.23543131993484365,-0.09373530623997135,1.4585220593515853
1915,19.3076810836792,1.2918292412282908,0.28280317702254437,-0.15446322695498108,1.3314125258190461
1916,19.315535068511963,1.1425948750180503,0.436336571537613,-0.24752719276716026,1.2478711324643676
1917,19.32589626312256,1.010259566760881,0.7315270517818314,-0.3739169445945933,1.3021405842594176
1918,19.335925102233887,0.9176711127942148,1.2012492502883896,-0.5312839622950045,1.6023054269293575
1919,19.347190141677856,0.8877878278717638,1.871828997025091,-0.7135826863163317,2.1911438272353676
1920,19.356096267700195,0.9426018272006991,2.7588980018531815,-0.9112422119391048,3.0545668691471213
1921,19.36620306968689,1.1021154959534538,3.8633275127384263,-1.111774738228654,4.168453083059205
1922,19.37634801864624,1.3833694225248347,5.167531239203131,-1.300784226536153,5.505372800394375
1923,19.387720108032227,1.7994377575793101,6.632528409206139,-1.4633805238127533,7.02637117577794
1924,19.39782309532165,2.3582439452930015,8.196313390072206,-1.5859062854686738,8.675019679521025
1925,19.408241271972656,3.0610840111521402,9.77416645974655,-1.6577511518160124,10.3755821131883
1926,19.41641616821289,3.90087857546992,11.261468626919191,-1.6729720606440959,12.03479807937554
1927,19.426714181900024,4.860371836325008,12.539357056799709,-1.6314619330448519,13.54696858430802
1928,19.43677425384521,5.910692866390701,13.483313433002323,-1.5395020307130232,14.802232865211664
1929,19.448583126068115,7.010813138942419,13.97461492704853,-1.4096731311004669,15.698042602980852
1930,19.457512140274048,8.108454782878445,13.914274355381403,-1.2601778330438156,16.15370291833126
1931,19.467659950256348,9.142986967140802,13.23819511955104,-1.113577944368228,16.127122388783278
1932,19.4775652885437,10.050750903112737,11.93075801207251,-0.9949139504623068,15.631712453467099
1933,19.490915298461918,10.772792037938098,10.033002297126991,-0.929260911539026,14.75051555805872
1934,19.49819111824036,11.26394533983419,7.6423530263552815,-0.9388262449444945,13.644171617082904
1935,19.507455110549927,11.501010323664415,4.903363546732913,-1.0396470802966387,12.545799240703397
1936,19.51773500442505,11.48728715763603,1.9913969094611428,-1.2381756757197078,11.724184700734845
1937,19.527437210083008,11.251675068606739,-0.9076751459354669,-1.5286901468422112,11.391266812128837
1938,19.537575244903564,10.842518689587981,-3.6183778492044807,-1.8928065383378978,11.586008216174069
1939,19.548885107040405,10.318228134383382,-5.993744183686498,-2.3017839223992267,12.15273674519744
1940,19.557756185531616,9.737341937944956,-7.9278561105840275,-2.721351285429802,12.848053679265844
1941,19.567788124084476,9.150190201357255,-9.361457360089736,-3.1180204885497194,13.456779569897416
1942,19.577876091003414,8.593465449878215,-10.28068888559988,-3.465057325340922,13.840044605009272
1943,19.591265201568604,8.088213218427054,-10.710000305021886,-3.745971412761372,13.933972923238096
1944,19.599066257476807,7.640856694596493,-10.70131860547631,-3.9546280206632707,13.730986625333541
1945,19.608153104782104,7.246115519402042,-10.322339563030342,-4.093033371751197,13.25932903118742
1946,19.61790609359741,6.89060346767766,-9.646403727175953,-4.1684911946337735,12.566218200245642
1947,19.62831926345825,6.556346298356532,-8.745054789370856,-4.191016242519933,11.70582236317199
1948,19.638399124145508,6.2238291607914595,-7.68329827507113,-4.17106014795188,10.731582575010151
1949,19.64975929260254,5.874303942446807,-6.517238001468984,-4.1174887211579705,9.692035459329512
1950,19.658491134643555,5.491243346357687,-5.293678049211229,-4.035969487140718,8.629358636581822
1951,19.668607234954838,5.061121764542312,-4.0511168211224895,-3.928046812324321,7.579977095857001
1952,19.67862701416016,4.573937125295174,-2.8214245488625602,-3.791140506382947,6.5767836858311925
1953,19.692151069641117,4.023883072849148,-1.6314921283353219,-3.6195515177215443,5.652835990741493
1954,19.70007610321045,3.4103539726305954,-0.5042532277647024,-3.4063055112924983,4.846411329283767
1955,19.70888113975525,2.739149561101029,0.5413031077544029,-3.145377890916378,4.205871069018889
1956,19.71902704238892,2.0234607742445863,1.4911592657620916,-2.8336741828968086,3.7878303599277694
1957,19.72905206680298,1.2840388362159298,2.337875182977841,-2.472218418013338,3.6367952939997603
1958,19.739261150360107,0.5479448551980691,3.081864822502967,-2.066319289304061,3.750707900366185
1959,19.75309801101685,-0.15446063307558927,3.7313669252159216,-1.62487040389024,4.072733854207007
1960,19.75944805145264,-0.7940652738621407,4.300642432991304,-1.1592006506974015,4.524357539383509
1961,19.76951813697815,-1.3482068379524508,4.806733872809433,-0.6819609915594659,5.038593354888255
1962,19.77947425842285,-1.805271944877801,5.265670008027122,-0.2064225653868048,5.570358848754728
1963,19.789618015289307,-2.1675314584134635,5.689057351952375,0.25375854827522815,6.093271664536065
1964,19.80908513069153,-2.451482303398324,6.081762273205067,0.6846350917917964,6.59289944110847
1965,19.811195135116577,-2.685535713398357,6.441080896735865,1.072350466345483,7.060422133902837
1966,19.81980323791504,-2.9055172708386685,6.757471002928705,1.4040035527064674,7.488435814145465
1967,19.829901218414307,-3.1490067881695514,7.016575695678289,1.668877981786704,7.869798724441028
1968,19.83999514579773,-3.449831314927048,7.201968993750483,1.8596694422712468,8.199272158119406
1969,19.8519229888916,-3.833878933375302,7.297912687529496,1.973220008656278,8.476541421661574
1970,19.860236167907715,-4.316856853237061,7.291502278728888,2.010445659560285,8.708797294810182
1971,19.87040615081787,-4.903861492072409,7.173914777994789,1.9756059811620272,8.911561578543115
1972,19.881702184677124,-5.589970242051204,6.940980094857545,1.8754280458618027,9.107260968009628
1973,19.89079523086548,-6.360864050003837,6.593688737310471,1.7185658930635948,9.321523016973549
1974,19.902011156082157,-7.192884551849848,6.139145725550347,1.5155538967385713,9.577243968371212
1975,19.91052722930908,-8.052639333688584,5.591882966226059,1.2790385903928936,9.886864774141088
1976,19.92058897018433,-8.896813403323657,4.974849855289045,1.0238017706629656,10.24453951536337
1977,19.93062710762024,-9.672940263737189,4.319301768721028,0.7660140619646697,10.62115429970925
1978,19.940853118896484,-10.321612879598053,3.6631787650209677,0.5213754877147777,10.964780139153488
1979,19.952410221099854,-10.780262647520884,3.048036077034644,0.30232630753767903,11.206961580761668
1980,19.961024284362797,-10.988397064213906,2.5149115678041527,0.1151564577686385,11.273105661017542
1981,19.97089529037476,-10.894028428606882,2.0997354497283434,-0.04174408821153549,11.094615222306786
1982,19.982375144958496,-10.46082215136803,1.829066463861143,-0.17740427953139132,10.621005436876944
1983,19.99119806289673,-9.675196365132214,1.7169764126352434,-0.3053504725641181,9.831107344369123
1984,20.00206422805786,-8.552283285373992,1.7636743423923147,-0.4392506627569697,8.743285293528558
1985,20.01136612892151,-7.139449069764613,1.9560445958841046,-0.5887337129985948,7.425930976360561
1986,20.021263122558597,-5.515982006208585,2.269862140299655,-0.7564634356601669,6.012534287492538
1987,20.031501293182373,-3.7876424463474287,2.672871631918737,-0.9364580041887376,4.729421915593683
1988,20.041567087173465,-2.075721328665995,3.1271403076813753,-1.1131199252441546,3.914928033333441
1989,20.05296015739441,-0.502550644052061,3.589367242150182,-1.2612170912887342,3.8375490746330216
1990,20.061707973480225,0.8227584641887475,4.0100512477630375,-1.3483236276097357,4.309921009119633
1991,20.071887016296387,1.815423209207721,4.334619039322886,-1.3408670103045452,4.886983526053016
1992,20.083237171173096,2.422335906679006,4.509137671191761,-1.2125915481236778,5.260267297878316
1993,20.09900212287903,2.6260791633950076,4.490309140627713,-0.9524823100123203,5.288325869470283
1994,20.10312008857727,2.4455667203698113,4.256357092063457,-0.5696465332848297,4.9418487888464036
1995,20.112139225006104,1.932796484448778,3.814079526665367,-0.09402805380763915,4.276885100271962
1996,20.122082233428955,1.165553440424363,3.1986299484370133,0.4272812679178718,3.4310811199149382
1997,20.13233423233032,0.2369438834402688,2.4659800731722963,0.9377373362898584,2.648877391850102
1998,20.14291214942932,-0.7563088177996747,1.6813495752983885,1.381810304392589,2.303983320157321
1999,20.153651237487797,-1.7245547647604147,0.9079175845484344,1.7159121333443483,2.596682099593338
2000,20.16263723373413,-2.593136514757544,0.1987101321095656,1.9165036362884993,3.2306081298540286
2001,20.17281818389893,-3.306713250121488,-0.4075866191913931,1.9825264503827529,3.8769692411908716
2002,20.1838481426239,-3.8302254434517184,-0.8875514081083966,1.9317812507904704,4.380656714535585
2003,20.194403171539307,-4.147538989396412,-1.2318164775154044,1.7934525659483929,4.683580212737767
2004,20.20414400100708,-4.258959564505153,-1.4427238254713994,1.5997920763174085,4.772789886022714
2005,20.212937116622925,-4.178374652741376,-1.5315310749808606,1.3795262064559042,4.659130254307371
2006,20.222912073135376,-3.9302407480969195,-1.5155832779217568,1.154519222964494,4.3676881352166195
2007,20.232961177825928,-3.5463867089187615,-1.4157102518673186,0.9395533059752467,3.9324107899870895
2008,20.24316120147705,-3.062711850293668,-1.2539908165487734,0.7436714245771341,3.39201179739259
2009,20.25480818748474,-2.5160767829187582,-1.0519474281058894,0.5715453493472501,2.786377550764051
2010,20.26329112052917,-1.9417191307759931,-0.8292216681970624,0.424405672241651,2.153602083129538
2011,20.27341604232788,-1.3713143108411694,-0.6027550116730188,0.30086075297385984,1.5278526551649967
2012,20.283445119857788,-0.8315680838885886,-0.38639865925084477,0.1979042615792063,0.9380700926712248
2013,20.294259071350098,-0.3432228676978563,-0.19078737398086273,0.11203851604665771,0.40835571265649134
2014,20.30509901046753,0.07944492821073795,-0.023352758897464132,0.04020376514515223,0.09204993589557221
2015,20.313765048980716,0.42845128005551947,0.111528857590977,-0.019779198738299746,0.44317084985306826
2016,20.32385396957397,0.7012383281181224,0.2122220500866251,-0.06930135508281489,0.7359185207488557
2017,20.333971977233887,0.8993979282497938,0.27938762036392567,-0.10934111396840775,0.9481189561212721
2018,20.34399914741516,1.0274013940283546,0.31549268346976245,-0.14077980983013635,1.0839318302504857
2019,20.355546951293945,1.0916225761059066,0.32434229527333774,-0.16449222330233393,1.1506065638150245
2020,20.364243030548096,1.0997075595109789,0.3106640583800103,-0.18129084090491393,1.1570372693265947
2021,20.374341011047363,1.060207636455299,0.27975073250112126,-0.1918790860969957,1.1131569019749479
2022,20.384385108947757,0.9823984029797475,0.2371523090402862,-0.19685655582362635,1.0296117440234636
2023,20.394652128219604,0.876240236641159,0.18841431290664698,-0.19671625764180004,0.9176024147950098
2024,20.406082153320312,0.7523932791127573,0.13886414392924562,-0.19183268547392718,0.7887830348957744
2025,20.414613246917725,0.6221325092338327,0.09344194260095762,-0.18254921909187904,0.6550606636592373
2026,20.42472219467163,0.49701761747563256,0.0565766819160217,-0.16943793888516367,0.5281445333916024
2027,20.434797286987305,0.38827318058911614,0.03211260685392846,-0.15363598617360175,0.4187974433198924
2028,20.44483017921448,0.3059642365528528,0.023265731100239793,-0.13704910019478864,0.33606229207871563
2029,20.456665992736816,0.25814030251098474,0.03255726399106028,-0.12228085290120148,0.28748738790648115
2030,20.46493625640869,0.25014079560572255,0.06168352096411718,-0.1123172488900993,0.28105237729475807
2031,20.47513508796692,0.28422540762477577,0.11134273333298539,-0.11008918669777591,0.3245010256275132
2032,20.485005140304565,0.35961690764141546,0.18109570013910123,-0.11800912417786616,0.41957851024530873
2033,20.49522113800049,0.47290928210599326,0.2693459376492444,-0.13756115526339008,0.5613497079963212
2034,20.50652027130127,0.6186624951234074,0.3734938978810274,-0.16906097432654463,0.7421742299938229
2035,20.51537013053894,0.7899874661739832,0.4902849797782905,-0.2116849490586429,0.9535565404139124
2036,20.525350093841556,0.9790301244771832,0.6163552387870416,-0.2637516761864013,1.186574359956078
2037,20.53549528121948,1.1773785879634888,0.7489840424348528,-0.3231330416569371,1.4323450693975304
2038,20.54562902450561,1.3764610749136867,0.8870633361920293,-0.3876731065674775,1.6828003121952273
2039,20.55681610107422,1.5679965844640513,1.0322430992359677,-0.45556106862303813,1.9317543819171659
2040,20.565749168396,1.744558148873168,1.1901053687658263,-0.5256272220643505,2.1762623693250096
2041,20.57593011856079,1.9003173368916535,1.3711025749542387,-0.5974878338014225,2.418288643540685
2042,20.585875988006592,2.0320063281007323,1.590947469880396,-0.6714551168580105,2.6666487476447025
2043,20.59607410430908,2.1400232316319827,1.870219742826827,-0.7482081135479632,2.9389176068006466
2044,20.6071572303772,2.2294947648496772,2.2330731866416915,-0.8283031062760396,3.262414565817277
2045,20.61624002456665,2.311091068662807,2.7049469981608127,-0.9116127587523888,3.6727262370659113
2046,20.626410007476807,2.401406521607167,3.3091962085695306,-0.9967821096436478,4.2084566533272065
2047,20.636484146118164,2.5226985345136925,4.062740433605585,-1.080817344821111,4.902859763419446
2048,20.646531105041504,2.7017766650532637,4.971112638008315,-1.158921986287478,5.775349182334592
2049,20.657981157302856,2.967928946284009,6.023506922448777,-1.2246735610394397,6.825764660907074
2050,20.666630268096924,3.3499041307235626,7.188585493208805,-1.2706583605069774,8.03194819127571
2051,20.67832899093628,3.872073624666327,8.411927853287581,-1.2896970228255007,9.349695330567569
2052,20.6869592666626,4.550020763275229,9.616002121424897,-1.276670677330468,10.714479631033848
2053,20.697447299957275,5.386022071220133,10.703398740831586,-1.2306922332391252,12.045189152929924
2054,20.70818424224853,6.365168665763444,11.563884328358641,-1.1570928459245804,13.250571940764113
2055,20.71717596054077,7.453093790788516,12.085520348556129,-1.068529080559999,14.239036608761738
2056,20.727758169174194,8.596313828011592,12.169288179771215,-0.984539009319709,14.931761560273287
2057,20.73774719238281,9.726001148111086,11.745189555197399,-0.9292429100087147,15.277698400164134
2058,20.74776601791382,10.765406420955587,10.786240533488732,-0.9276683475512916,15.267531850881321
2059,20.758820056915283,11.63995039031719,9.316471121356514,-1.001888324397338,14.942853123104667
2060,20.76741504669189,12.287702518163291,7.41074237669458,-1.1680375427435998,14.39691103847877
2061,20.778621196746823,12.667652450698856,5.186749580136965,-1.4344066800702582,13.763332167123552
2062,20.78759813308716,12.764152059079844,2.791118816365124,-1.800152006296601,13.189180007875901
2063,20.79768705368042,12.587158037468656,0.3818177251405529,-2.2542797679553974,12.793127432635709
2064,20.80883407592773,12.168657066136698,-1.8906526210400423,-2.7751974649637146,12.623490131347399
2065,20.817914962768555,11.556196741575686,-3.900273837786848,-3.3316297775196095,12.64347958887048
2066,20.82798409461975,10.805041712361398,-5.557722080795761,-3.885621191047595,12.75677283538249
2067,20.83849310874939,9.970758361082513,-6.815806529653166,-4.397569491508256,12.853398709189868
2068,20.848204135894772,9.103707944313337,-7.66772537593277,-4.8320543782244,12.846021185183943
2069,20.859596252441406,8.24608275773027,-8.139355032470114,-5.162616471294514,12.684620215899823
2070,20.8683021068573,7.431096786848164,-8.278277215053988,-5.374366227357418,12.354549180384817
2071,20.879631996154785,6.683351209756567,-8.142743526031364,-5.464566866152219,11.867305783467827
2072,20.895737171173096,6.01954582039685,-7.792767199139105,-5.441820998391061,11.250580797557316
2073,20.89857006072998,5.449163187483632,-7.284027136608892,-5.324207479050276,10.540285387533698
2074,20.90998601913452,4.9750155826137314,-6.66438601442168,-5.136480938754158,9.774878895958432
2075,20.91878604888916,4.5936293906829535,-5.9725340624205066,-4.906532561066882,8.991476846354496
2076,20.928800106048584,4.295529281583219,-5.2381709789835655,-4.661500899790053,8.223113622755553
2077,20.938823223114014,4.065596601848059,-4.483126292552554,-4.4240749598955755,7.496661679354986
2078,20.948897123336792,3.883747791970175,-3.7228756008701365,-4.209603182943238,6.831109617699984
2079,20.96017408370972,3.7261540600194167,-2.9679856765504824,-4.0245294818106485,6.236184779588486
2080,20.968971252441406,3.5670832155985774,-2.225141570237372,-3.8663819543713602,5.711763921214883
2081,20.980318069458008,3.381225375582213,-1.4976392630615114,-3.7251474613415123,5.249031530814387
2082,20.995678186416622,3.146163399596157,-0.7855227884362721,-3.5855566325585184,4.834418946822413
2083,20.999232292175293,2.84456978363987,-0.08574955528939218,-3.429687871285111,4.45664550246814
2084,21.010457038879395,2.465783271420733,0.6072302463316657,-3.2393760261209055,4.11611136295961
2085,21.019423961639404,2.0065843227723,1.300285425388478,-2.9981227090848708,3.834822370150105
2086,21.02945613861084,1.4711690535572997,1.999902067730808,-2.692458775885734,3.662414630336487
2087,21.03965997695923,0.8704527182252678,2.7103164007491345,-2.3129061677849134,3.667838309933113
2088,21.049702167510983,0.22087376951838114,3.4319213337855667,-1.8547559376908085,3.907299432057015
2089,21.06096601486206,-0.457178955120577,4.160284023757083,-1.3187938329401057,4.3881878867175255
2090,21.06983327865601,-1.1412697559735827,4.885913916167856,-0.7119043112088085,5.0676877567999785
2091,21.079854011535645,-1.8091409446392197,5.594767482478854,-0.04729951352074169,5.880191441148168
2092,21.09506916999817,-2.4412226837506554,6.2693977097045455,0.6559054091779891,6.759817138051613
2093,21.09997797012329,-3.0232849824857317,6.890539804728417,1.3738951993311015,7.649011629263975
2094,21.111279010772705,-3.5488619139573028,7.438737163069691,2.080019306003283,8.500335980354963
2095,21.12021517753601,-4.0207818588560755,7.895585019238065,2.746961589452798,9.276462015577476
2096,21.13027000427246,-4.4510172987728245,8.244507859990845,3.34870972449541,9.949739778826173
2097,21.140438079833984,-4.8583682690530186,8.471452480872308,3.8618809333444544,10.501589104356933
2098,21.150509119033813,-5.2641898994974765,8.56598749897236,4.2662504722921755,10.921938025041856
2099,21.161879062652588,-5.687155208331839,8.52290735048436,4.544735862020867,11.208849545075305
2100,21.17060899734497,-6.138491170796865,8.343887751910442,4.683442773219581,11.368208868614918
2101,21.180699110031128,-6.618956523392756,8.03849045150277,4.672446648806068,11.413135935552674
2102,21.19503927230835,-7.118088132554067,7.624069023024471,4.507608196276072,11.362752253824052
2103,21.200785160064697,-7.61532352432383,7.12469110924808,4.19304186719224,11.239927752541186
2104,21.212093114852905,-8.082074037011436,6.569582825026134,3.7432591566257303,11.067580058363033
2105,21.221079111099243,-8.483992940228188,5.991467461348372,3.1838427412795234,10.863363804615785
2106,21.231152057647705,-8.783297990565616,5.424721969670403,2.5498910652685205,10.63371414342303
2107,21.24134111404419,-8.941494322913199,4.903042787376223,1.8822425803187086,10.36981130169184
2108,21.25133800506592,-8.922888578209625,4.456512752588046,1.222277589712517,10.048502823776142
2109,21.26267719268799,-8.699011085715895,4.108384527968963,0.6065471066447318,9.639476992640311
2110,21.271879196166992,-8.253707478754688,3.8722476319995516,0.06249104043201687,9.117120927053204
2111,21.28150224685669,-7.588297869884785,3.7503192086414727,-0.3937677161401179,8.473618574320971
2112,21.295141220092773,-6.7258139125509535,3.7333866139945515,-0.757013343427926,7.7296712477275245
2113,21.301788091659542,-5.71297182638129,3.8024667488045276,-1.0299318299192295,6.939564830669948
2114,21.313011169433597,-4.618469343482251,3.931317269938329,-1.2180700773083744,6.186211220677383
2115,21.322107076644897,-3.5268730305487037,4.088141564836476,-1.3241013132627224,5.55922468654933
2116,21.331940174102783,-2.5288610291356064,4.235824177064075,-1.3439632666749302,5.1130794855794
2117,21.34213399887085,-1.7098845533975022,4.332353351038273,-1.2674950526868225,4.826959131045704
2118,21.35218095779419,-1.1393485884715524,4.333876480819872,-1.0836941433074267,4.610313823732022
2119,21.36352300643921,-0.8616335663800316,4.201229904070032,-0.7880307693265001,4.360474469936772
2120,21.37224006652832,-0.8898543562966102,3.908457249692508,-0.3890690704366252,4.027313445668762
2121,21.382347106933597,-1.203375595413617,3.450212896631837,0.08753743396273138,3.655098447110078
2122,21.39489221572876,-1.7500631554868675,2.8448418648603027,0.5996236704117868,3.3934340763263102
2123,21.40252709388733,-2.453493269503343,2.1316150111975145,1.094957180062775,3.429627240041082
2124,21.413733959198,-3.2239781136794625,1.3632264653407158,1.5221944169783475,3.8170010631868547
2125,21.422667026519772,-3.971034712722836,0.5965156354725958,1.8422570022391291,4.418015216736143
2126,21.432765007019043,-4.61463375940503,-0.11575270008799615,2.0357186994578975,5.04503657512419
2127,21.442971229553223,-5.093343344185275,-0.730706120713309,2.1039869606695913,5.559032198797916
2128,21.45291328430176,-5.3687037460256555,-1.2186596071328974,2.0649595249894035,5.879810285246598
2129,21.46442222595215,-5.426092876919994,-1.5641780042754794,1.9456703156561028,5.9728359859656655
2130,21.47452402114868,-5.272678973941624,-1.7653295284225201,1.7747800720304918,5.836726497810492
2131,21.48346710205078,-4.933105516312387,-1.831657885770893,1.5772184153606588,5.493461438413051
2132,21.49513530731201,-4.4437424428443615,-1.7813515834778468,1.3720349855199647,4.980214891326094
2133,21.503353118896484,-3.846625691635347,-1.6380074257856871,1.1727346422377745,4.342223402772216
2134,21.514631271362305,-3.1842100030876113,-1.4274366734191786,0.9883481463636178,3.6267893320133187
2135,21.523560047149655,-2.4956374084796176,-1.1749772703236991,0.8241054817413433,2.8788760837202294
2136,21.53355121612549,-1.814617820491609,-0.9035712338852323,0.6817851663907176,2.138716863509758
2137,21.543713092803955,-1.1685496219808218,-0.6326041558953793,0.5602629417203756,1.442078638962798
2138,21.55371618270874,-0.5783518658801902,-0.3773835210555334,0.4564974311281553,0.827827945504363
2139,21.56504201889038,-0.05863470499938116,-0.149097573131405,0.36678526468163275,0.40024935394278216
2140,21.57520198822021,0.3818784923215481,0.04492519826510888,0.2878668839022019,0.4803298857915274
2141,21.58397006988525,0.7396168206039111,0.20079635367646545,0.21750248884532325,0.796655226320591
2142,21.59462308883667,1.015149161376853,0.31754825739677545,0.1544745393525145,1.0748149138005243
2143,21.6041111946106,1.2120914185091143,0.39654425002294896,0.09828094376042563,1.279090338074735
2144,21.615326166152958,1.3361646103972376,0.4408710015904365,0.04878832223858165,1.4078648395738178
2145,21.62435507774353,1.394516791400813,0.4547892976707027,0.005930716589282996,1.4668147668243228
2146,21.634377002716064,1.3952773999292385,0.44330351990118394,-0.03058329472389439,1.4643265931568148
2147,21.644450187683105,1.3472682340843056,0.4118538664161998,-0.06153477835261007,1.4101566688852418
2148,21.65491199493408,1.2598494478234255,0.36607964797486986,-0.08826148492084607,1.3149239634149297
2149,21.665935039520264,1.1429010456103394,0.3115927749500561,-0.11235843931241303,1.1899316267513038
2150,21.67588520050049,1.006852205679272,0.2537304179994789,-0.13508219771904112,1.0470805552773919
2151,21.68476629257202,0.8625642563929917,0.19728710847668718,-0.1567733923205528,0.8986196059054026
2152,21.694876194000244,0.720881887006168,0.146249891966197,-0.17660674873333138,0.7564718564572352
2153,21.70540714263916,0.5918080568750325,0.1035819012805817,-0.1927817276474589,0.6309760541968616
2154,21.71619701385498,0.48344777785743864,0.07111712193872259,-0.20309160678394916,0.5291744510973945
2155,21.725197076797485,0.40101076207228425,0.049630199402253196,-0.20571518768320443,0.45342201802960297
2156,21.73521900177002,0.3462034436862122,0.03910335925467024,-0.20000094291293144,0.40172910560631997
2157,21.745302200317383,0.31726591975025953,0.03912307425364806,-0.18695553146815735,0.3703250592662826
2158,21.755444049835205,0.3097416830019748,0.049261381797499115,-0.16920150506732987,0.35636462119933354
2159,21.766682147979736,0.31784070720397356,0.06930342137218276,-0.15039176728017756,0.35838995945124835
2160,21.776928186416622,0.3360394360556778,0.0992760974585897,-0.13433216665407138,0.3752644095956911
2161,21.78558921813965,0.3604706017231694,0.13933452328067414,-0.12414434596074006,0.405912530871537
2162,21.795581102371216,0.3897457837533107,0.18959058589380537,-0.12168210249818603,0.45016985714440927
2163,21.80556416511536,0.42504667170474386,0.24993357495817003,-0.12729053162845455,0.5092488040839233
2164,21.817052125930783,0.4695192570388802,0.3198791357881979,-0.1399429056756264,0.5851111100396947
2165,21.82600212097168,0.5271776460487655,0.39850762822202207,-0.1577140956336706,0.6794102856199672
2166,21.835975170135494,0.6016451729936961,0.4845628977576098,-0.17844759554379414,0.7928566455704511
2167,21.846243143081665,0.6950796999597095,0.5767661359279893,-0.20044147901819787,0.9251874141817896
2168,21.856152057647705,0.8075306518567716,0.6743744402988555,-0.22302355681142277,1.0754655486390232
2169,21.86766815185547,0.9368116402678771,0.7779620182918607,-0.24692515574021276,1.2425027097690629
2170,21.880547046661377,1.0788392751682692,0.8903298648266413,-0.27436542837289446,1.4254325091473337
2171,21.887481212615967,1.2283383312726774,1.017412025227837,-0.30877738657008547,1.6245878737726092
2172,21.896526098251343,1.3798140745242147,1.1690421270594344,-0.35419622745993407,1.8428242842554499
2173,21.90662407875061,1.5286886357994343,1.3594148278615852,-0.4144636102862529,2.0872656044892306
2174,21.917909145355225,1.6724760538739987,1.6070409155112684,-0.4924732581629604,2.371136133779518
2175,21.92679500579834,1.8118572067840037,1.9340104946434784,-0.5896164137500365,2.7149347407497104
2176,21.936845302581787,1.9515353111073501,2.364411187170962,-0.7054437143709664,3.145883209317149
2177,21.947038173675537,2.100780354771243,2.921767469322468,-0.8374851613408981,3.6947780230008402
2178,21.957146167755127,2.2735613151615435,3.6254658079263544,-0.9812034531054219,4.390426356816406
2179,21.96869111061096,2.4881323880653174,4.4863667444604785,-1.1301134203697312,5.253136747624252
2180,21.977360248565677,2.765950997284709,5.502080022857144,-1.2761116749643753,6.289024606748198
2181,21.98727321624756,3.1298884536823204,6.652576701218258,-1.4100379519711543,7.486066091351647
2182,21.997199058532715,3.601800845575433,7.896929937593297,-1.5224731653505543,8.812059708697946
