,time,New_AccelerationX,New_AccelerationY,New_AccelerationZ,new_NetAcceleration
998,10.008899211883543,-2.7506458153219633,3.004783018013734,1.4124763025752751,4.311596304389903
999,10.019617080688477,-1.5013058645302222,4.918464313300763,0.8147049200513304,5.206626029094257
1000,10.02952003479004,-0.12512504493698523,6.7242968769627,0.23986989417112706,6.729737166675268
1001,10.03960108757019,1.4475218933007232,8.334874425917262,-0.3023742157736637,8.465038776860935
1002,10.051449060440063,3.2662541705228922,9.66828174719857,-0.8031766523760665,10.236658682626535
1003,10.064393043518066,5.352261122556721,10.653770291663992,-1.255064562077236,11.988523996162185
1004,10.069699048995972,7.691705179951753,11.23801141882633,-1.6525982277111861,13.718101549675223
1005,10.080231189727783,10.232357090213581,11.391198549973138,-1.9931606398932913,15.441283151440949
1006,10.089615106582642,12.884607260378738,11.112069592623518,-2.2778117767012227,17.16623492136792
1007,10.099751949310305,15.527239820755435,10.430895050823619,-2.511942488019037,18.873489425002077
1008,10.109281063079834,18.017458243627186,9.40958913371404,-2.7053927568156326,20.50581183944662
1009,10.119758129119871,20.204038938004434,8.138344613241353,-2.8718658630216876,21.970058169869812
1010,10.129906177520752,21.942268329382717,6.728624826997728,-3.027667017861229,23.14960688806976
1011,10.139774084091188,23.1091655279236,5.30294508158197,-3.1897300564288127,23.9234014255526
1012,10.149805068969728,23.61716848551647,3.9824119174502854,-3.3726686076310024,24.18687961458489
1013,10.163350105285645,23.424388613110818,2.873224089318784,-3.5846654421379496,23.87063520096471
1014,10.16989517211914,22.54025148376556,2.053361982441551,-3.8225931443383803,22.954116204495318
1015,10.179826021194458,21.026381216240697,1.5609480198872505,-4.067509234589947,21.473003915264023
1016,10.189372062683104,18.992897218389363,1.3865605370758363,-4.282333494788168,19.51899267461984
1017,10.19939112663269,16.589829170650816,1.4726772830045134,-4.413971265094174,17.23004215375956
1018,10.209362983703612,13.99328519034556,1.7231370820562169,-4.401742980309711,14.770124342286607
1019,10.220307111740112,11.387016983384575,2.0229055737406427,-4.19222999833657,12.301670419057436
1020,10.229698181152344,8.94137494186235,2.2639653225782745,-3.7578734097932656,9.959685607328785
1021,10.239345073699951,6.792582010419119,2.369157202784923,-3.113225450991099,7.838638206249595
1022,10.250790119171144,5.026234185936226,2.3055816052612013,-2.3205242173271987,5.996963337689736
1023,10.264256954193115,3.6697365571783536,2.0843283941123203,-1.4792098959066222,4.472074817100242
1024,10.269711017608644,2.6968000321659327,1.7498846862705735,-0.7021805570247014,3.290575080954385
1025,10.280077934265137,2.0425810301205116,1.3644611519526024,-0.08848199080382399,2.4579911640387566
1026,10.290031909942629,1.623936133594637,0.9905694480329099,0.29770687428311354,1.9253638046784676
1027,10.300586223602297,1.3585681285519318,0.6750886080563802,0.43712175386695457,1.5787740232054497
1028,10.310056209564207,1.1787437931977456,0.4396093739082216,0.35518680215307197,1.307230276597782
1029,10.319644927978516,1.0377467097832334,0.2802212432689219,0.11406231583230585,1.0809497632814096
1030,10.329950094223022,0.9094921627754184,0.17506940029547888,-0.20142869328776583,0.9478390198495438
1031,10.340062141418455,0.7834902850476795,0.09502537973505698,-0.5025624295511741,0.935657974451276
1032,10.351291179656982,0.6581149264222024,0.013819735400054248,-0.7166380069219722,0.973075677648622
1033,10.365416049957275,0.5347368567343329,-0.08412403881151471,-0.8024919268789232,0.9679946552341716
1034,10.369940042495728,0.41421559936655045,-0.19963777534541105,-0.7566074177265129,0.8853725705386617
1035,10.379727125167848,0.2960703532004388,-0.3200453613433342,-0.6080094919001252,0.7481725934583987
1036,10.390666007995604,0.17949703758165678,-0.425597996725113,-0.4041741959353912,0.6137667488362659
1037,10.400338172912598,0.06468069952675998,-0.498296615571098,-0.19341093620680788,0.5384151745867454
1038,10.409757137298584,-0.046785968559146664,-0.5287462358916653,-0.010572272326299934,0.5309173963676114
1039,10.419804096221924,-0.15253423488599674,-0.5180397304003607,0.12872407815632278,0.5551592054381607
1040,10.431218147277832,-0.25063487700221576,-0.47499454955431025,0.22504064375104949,0.5823065816355717
1041,10.43993616104126,-0.34084080558700003,-0.41148824553542096,0.28754308788234917,0.6067751299747959
1042,10.450993061065674,-0.42521568244498087,-0.3385597767807482,0.32689129820902396,0.6342625796117581
1043,10.465639114379885,-0.5075660812073325,-0.2644105026192536,0.3511244763712295,0.6714347612348536
1044,10.469913005828856,-0.5916747505018873,-0.1941220853316235,0.36455305382434167,0.7215686547014235
1045,10.479957103729248,-0.679100799595669,-0.13034954379919042,0.3684695240722193,0.7835423981828564
1046,10.490861892700195,-0.7676315755521239,-0.07424113301761966,0.36240575330656577,0.8521196580563526
1047,10.501063108444214,-0.851164644807113,-0.026145715465723515,0.34519349336534944,0.9188707193444609
1048,10.509900093078612,-0.9211306621960549,0.013946330883528672,0.31569376946837713,0.9738268599006746
1049,10.520819187164308,-0.9688946615134567,0.04607110272556826,0.2733729696635444,1.0077758640482966
1050,10.530488967895508,-0.9881809077059622,0.06995510181054926,0.21884767491133356,1.0145390714201206
1051,10.540424108505247,-0.9766107921786777,0.08473578185256198,0.1542778263451647,0.9923459275009991
1052,10.552365064620972,-0.9358845077651583,0.08891708997542895,0.08333616418717787,0.9437854507386535
1053,10.56626009941101,-0.8707464072202905,0.08070676278378598,0.010605289105631823,0.8745429431440724
1054,10.570065021514893,-0.7873537972179154,0.058726034701393606,-0.05940621936137547,0.7917725986948723
1055,10.580198049545288,-0.691818147739959,0.022900113638786263,-0.12314954463658125,0.7030665509688356
1056,10.591288089752195,-0.5894947485310224,-0.024750798951938328,-0.1783428404256538,0.6163788034362496
1057,10.6012601852417,-0.4851972677803654,-0.07963133661134829,-0.22350832155287015,0.5401050899921447
1058,10.610830068588257,-0.38408329494482646,-0.13444190221663924,-0.25694926773843785,0.48126658799320604
1059,10.62071704864502,-0.29265918163082116,-0.1792953741685844,-0.27567998370538854,0.4402223088473345
1060,10.63054609298706,-0.21931352738556406,-0.20193456106007598,-0.2748695466209518,0.40549877669905704
1061,10.640430927276611,-0.17403449549533068,-0.18795546415215067,-0.24811412451155668,0.35661727511311186
1062,10.652465105056764,-0.1673775474999038,-0.12104416121264315,-0.18844867508759525,0.27960657272858397
1063,10.666550159454346,-0.2091114528593422,0.016624290857890748,-0.08969804427011688,0.22814404640348715
1064,10.670318126678469,-0.30709655742143516,0.24357555662923244,0.05228797919917159,0.3954382127919231
1065,10.68038010597229,-0.46679864258824727,0.5776288078077281,0.23881764885966783,0.7801217095674668
1066,10.691136121749878,-0.6915257121462272,1.033922005943429,0.4680383134390182,1.3290080465445915
1067,10.70108413696289,-0.9831795832965672,1.6226008971408135,0.7350114434954167,2.0346295944182566
1068,10.71223211288452,-1.343189643384687,2.3464829988829305,1.0319983501591619,2.893987124517617
1069,10.720871925354004,-1.7733361725780579,3.1989813921476107,1.3488046759868322,3.8983941799469695
1070,10.73104190826416,-2.2762034575278265,4.162494895547853,1.6731024995862112,5.030580275638705
1071,10.740864038467407,-2.854930101682281,5.207419058874041,1.9906978766492753,6.263442917143266
1072,10.753119945526125,-3.5119373388439774,6.2920021923989955,2.285748822854515,7.559606017663956
1073,10.766967058181764,-4.246682375935417,7.36343338908906,2.541000141855854,8.871930128136919
1074,10.770586967468262,-5.0531059133905085,8.360562157502121,2.738198463589426,10.14547237872156
1075,10.780704975128174,-5.917816086602609,9.218296093565495,2.858933444219826,11.321264529281882
1076,10.790854930877686,-6.819747172852698,9.873139999436045,2.8860858817917188,12.341690997070614
1077,10.801156997680664,-7.731205673620025,10.268989860360923,2.80578699343626,13.156600418517924
1078,10.81267023086548,-8.619541651902546,10.362520653119049,2.6094813897423914,13.729083206777268
1079,10.821237087249756,-9.448724114651013,10.128005255073024,2.295526018510311,14.040096778271586
1080,10.831317901611328,-10.180783579986818,9.561449886185144,1.8697240817707759,14.091328765255343
1081,10.84115219116211,-10.777758671805609,8.68337580620395,1.3443990142574698,13.90570048897162
1082,10.85285997390747,-11.204816059682956,7.539060491162487,0.7363131100188868,13.525069057743178
1083,10.867496967315674,-11.434662095969392,6.195176157319895,0.06446820121487129,13.005224374004161
1084,10.87079906463623,-11.452769833757982,4.732687600422827,-0.6513939187089307,12.409213626397275
1085,10.8808491230011,-11.262396169698196,3.2373028664520516,-1.3917880792369308,11.80079537107043
1086,10.89127802848816,-10.887633401226678,1.789750354370322,-2.1386326021899706,11.2391065844944
1087,10.90200901031494,-10.372445210917375,0.45787029602661,-2.876639811315734,10.773686530872936
1088,10.910845041275024,-9.774805898418236,-0.7084710262661321,-3.594468445440035,10.438820093864758
1089,10.921772956848145,-9.15728730687784,-1.6792508978027787,-4.285297117246114,10.248881196577278
1090,10.931243896484377,-8.576993836101085,-2.4429085665104155,-4.9468946705368175,10.198254380541385
1091,10.94127321243286,-8.077623842781579,-3.00240193422439,-5.581256966207633,10.267076197386919
1092,10.953098058700562,-7.685116159226798,-3.3701780583906737,-6.193446877794991,10.429664172644069
1093,10.96775507926941,-7.406867151830655,-3.5635790435947348,-6.789139186398097,10.660824897591262
1094,10.971113204956056,-7.233630431213581,-3.6014314369126765,-7.371166570357743,10.937541507035373
1095,10.981420040130615,-7.1430706906763115,-3.5017063993196405,-7.936545888714208,11.237177903846742
1096,10.991025924682615,-7.104123012310362,-3.2799127186887924,-8.475604984830564,11.535262072234808
1097,11.001177072525024,-7.081449513168891,-2.9482614338610476,-8.973494418520701,11.80520117444741
1098,11.012911081314089,-7.039479904526585,-2.5159105667089663,-9.412903593699323,12.020267774479446
1099,11.021162033081056,-6.945898143277548,-1.9903182872001846,-9.776644644365694,12.156876589130711
1100,11.03175401687622,-6.774716516447327,-1.3792536553046784,-10.049735704605903,12.19820938729641
1101,11.041439056396484,-6.508912368933028,-0.692855139037646,-10.221410617830593,12.137677845800663
1102,11.05339002609253,-6.142102183381179,0.05469753648733937,-10.28737056636078,11.98158604781603
1103,11.06819200515747,-5.678418819656434,0.8441258708138001,-10.25200464479778,11.749918638618771
1104,11.07126808166504,-5.130070027214753,1.6507604159731555,-10.129940305917764,11.474245902739243
1105,11.08128309249878,-4.5129138992988835,2.445174726506698,-9.946265399315113,11.192563008500116
1106,11.09133505821228,-3.841292189426834,3.1948530455005857,-9.734921081045796,10.942179861484904
1107,11.102005004882812,-3.123824283533886,3.866700587840745,-9.535094672438797,10.753031293675969
1108,11.112386226654053,-2.3616470073562073,4.429782203230895,-9.3858764269616,10.644013493866359
1109,11.122228145599363,-1.5497247587230696,4.857658812810819,-9.319864083360578,10.623481656302344
1110,11.131917953491213,-0.6806981593550713,5.130234816393275,-9.356961864748522,10.692773007683332
1111,11.142035007476808,0.2502091374930491,5.235489033359508,-9.500163154352336,10.850163592786352
1112,11.152760028839111,1.241045767296813,5.171284774693321,-9.734762246916285,11.092699257686872
1113,11.168150901794434,2.2810207026572127,4.946887902069057,-10.030964210526678,11.414683453975195
1114,11.171813011169434,3.3503556600280495,4.583470204930888,-10.348414787340722,11.803506715337749
1115,11.181479930877686,4.420801602533612,4.113012291125695,-10.640934648870118,12.234780223503789
1116,11.191450119018556,5.455513416158697,3.575474832988967,-10.860596334827097,12.668827872509942
1117,11.202140092849731,6.4083031233907315,3.01460097713898,-10.961279151238859,13.050050137988375
1118,11.212594985961914,7.223798033246712,2.47306154227811,-10.902268811935294,13.310099799202524
1119,11.222784996032717,7.8403956084601,1.9877514088512982,-10.65219162542422,13.375056836713203
1120,11.231987953186035,8.196826722944197,1.585890589932399,-10.19283894576318,13.175620784747672
1121,11.242226123809814,8.24143890874994,1.2823034197869576,-9.521827884326408,12.658231456478848
1122,11.252932071685793,7.942085052921513,1.0780401023621624,-8.653185562201903,11.794766035154737
1123,11.268517017364502,7.294333588800276,0.960543252354053,-7.615849389873341,10.589197692628888
1124,11.271440029144289,6.326511380489259,0.9058466405191685,-6.4510387739883726,9.08081525233838
1125,11.28166389465332,5.101148319533888,0.8834191397874843,-5.209763438558848,7.344642853139339
1126,11.292192935943604,3.7126732045252444,0.8634792426966554,-3.951060492923873,5.490028938440267
1127,11.302481174468994,2.2803144759163416,0.8247416845549602,-2.739992691642589,3.658905971130028
1128,11.313101053237917,0.9344115942213478,0.7590901499334173,-1.643213868931131,2.0370308545009412
1129,11.323699951171877,-0.20398423612924935,0.6707641947447237,-0.7209041967479553,1.0056028214109114
1130,11.332268238067629,-1.0460159237444298,0.571230176009335,-0.016815306256959515,1.191946299644025
1131,11.34203290939331,-1.5525741980858554,0.4734379363188927,0.4499382554358786,1.6843617645305626
1132,11.35457706451416,-1.739324786903942,0.38786195802874357,0.6884601636703368,1.9104096444965204
1133,11.369264125823976,-1.6670043896501354,0.3201647651318612,0.733786302303137,1.8492840369701111
1134,11.371898174285889,-1.4208926530782504,0.2703034928866048,0.6386234888881781,1.5810881918470445
1135,11.381946086883543,-1.0874032296003804,0.2339348387767651,0.46086282498438114,1.2039791675903004
1136,11.391967058181764,-0.7358442348602655,0.20575344865067788,0.2512502954004872,0.804318301760919
1137,11.402528047561646,-0.4099878386802448,0.18233706639267164,0.04605393067170782,0.4510629647584674
1138,11.4146990776062,-0.12959347088848622,0.1626101128590762,-0.13345733396306417,0.2470776729886682
1139,11.422316074371338,0.10146349343314368,0.1465264863216502,-0.27678133772786867,0.3292001831832036
1140,11.43247413635254,0.2855327066998965,0.13370751416147525,-0.3789992275008169,0.4929980125566696
1141,11.442084074020386,0.4245671566398199,0.12291181303636758,-0.4374859005643073,0.6218991055417843
1142,11.454040050506592,0.5184567090747528,0.11223185896901926,-0.45110393249087644,0.6963390749203997
1143,11.470372200012209,0.5670065260236614,0.09966353230555862,-0.42080130222737716,0.713093932228636
1144,11.472145080566406,0.5725387975111499,0.08370945736288096,-0.35028237263115675,0.67639166795845
1145,11.48228406906128,0.5407149581898071,0.06372941744035909,-0.24604103168916655,0.5974699104826634
1146,11.49318504333496,0.47916207915776476,0.03993725386172039,-0.11669077843082082,0.4947807798607364
1147,11.5022611618042,0.39517675202872043,0.013160249912914203,0.028101036741712496,0.39639314548525967
1148,11.515424013137816,0.294165166603309,-0.01544358645616023,0.17861623603560983,0.3444929743563867
1149,11.522442102432253,0.17971339725684773,-0.044571521957830484,0.3256508043169733,0.37460909235565354
1150,11.532596111297607,0.055092704143429885,-0.07283365467508454,0.4605904919458094,0.4695567575640326
1151,11.542572975158691,-0.07471393694171165,-0.09875194285273221,0.5752845329220158,0.5884610542846666
1152,11.554169178009031,-0.20152955375539375,-0.12081716900904062,0.6620825412288219,0.7025412733528343
1153,11.570187091827393,-0.31381897344663423,-0.13766853997718265,0.7142098983389548,0.7921683873267656
1154,11.572264194488524,-0.3980588601653967,-0.1483537493565289,0.7264143457656095,0.8415090568962362
1155,11.582406044006348,-0.44122695454371874,-0.15256231264369927,0.695687678995804,0.8378173018992193
1156,11.592987060546877,-0.4335371706966135,-0.15072065353521152,0.6218549948681595,0.7729002706819196
1157,11.60244107246399,-0.37048724714879594,-0.14385848701099166,0.5078399053964685,0.6448700908695322
1158,11.61613416671753,-0.25366923278590375,-0.13320511073087757,0.3594377240481756,0.4596598292824236
1159,11.622544050216677,-0.09039176876289953,-0.11955375588177042,0.1845690349732736,0.2377593343624787
1160,11.632916927337646,0.10738182746916154,-0.10251763938438839,-0.007733421811342096,0.14866246691238652
1161,11.64280891418457,0.3241579821136535,-0.07986805881089754,-0.20815415989963967,0.3934278313359916
1162,11.65463924407959,0.5416375487952998,-0.04715011990557413,-0.4074032642423759,0.6793907474991354
1163,11.662477016448976,0.7388851423555685,0.0023154810145493807,-0.596002889626354,0.9493029334670262
1164,11.67270302772522,0.8921558808963865,0.07705493437515219,-0.7638153897185629,1.1769849312121572
1165,11.682975053787231,0.9748869366801394,0.186743307013569,-0.8996386125842468,1.3396369789149816
1166,11.69363498687744,0.9583908529061511,0.341224668358803,-0.9911578673138307,1.4203313765346648
1167,11.70262098312378,0.8135394003868293,0.5493285898340746,-1.025482859649802,1.4195856265214826
1168,11.715182065963743,0.5134461513924611,0.8176397502699541,-0.990383227200954,1.3831198965824398
1169,11.722867965698242,0.03701861120839418,1.1493429262741413,-0.8761832608328552,1.4457028208853642
1170,11.734122037887571,-0.6268761223117814,1.54314937987818,-0.6781218370280931,1.798369513530916
1171,11.74300503730774,-1.475197613586936,1.9923046734582925,-0.39880796325146856,2.5108830523481434
1172,11.75492811203003,-2.4874609342191687,2.4837728706236035,-0.05021518518113438,3.515552749843912
1173,11.76318907737732,-3.6246671242300064,2.9977115680159163,0.3454463836671078,4.716335400549769
1174,11.773165225982666,-4.831543889715525,3.5073219610993984,0.7565277370500156,6.018094209463954
1175,11.78283405303955,-6.042469091661919,3.9792745842860997,1.144518282951409,7.325024303089032
1176,11.792781114578249,-7.190191240881902,4.37511265937288,1.4679171011251324,8.543725269367881
1177,11.803175926208496,-8.215189081256254,4.653997118709497,1.6866177866217853,9.591334650605058
1178,11.813276052474976,-9.072994370336305,4.776834694656559,1.766169615116845,10.404649520939708
1179,11.82317304611206,-9.737504169039694,4.711465027166803,1.681506061565799,10.94734455378855
1180,11.83371114730835,-10.200009301763666,4.438137115730904,1.419898003525999,11.213980611473815
1181,11.843351125717165,-10.465451397960116,3.9539140731448392,0.9830015857921837,11.230556601457833
1182,11.856007099151611,-10.548196679397691,3.274503969450646,0.38766363039692886,11.051566066559845
1183,11.86292600631714,-10.468934756918049,2.4329163794996913,-0.33521101423927474,10.753141098223903
1184,11.873070240020752,-10.25278516759424,1.475685292019837,-1.1441432558203055,10.421435340861796
1185,11.8834331035614,-9.927606630836749,0.4579744397061126,-1.9923255255049612,10.135900305529674
1186,11.893964052200316,-9.52172274736498,-0.5615123429841146,-2.8332492645443472,9.950165907363168
1187,11.904672145843506,-9.061302299613521,-1.525434904333029,-3.6253748539920676,9.878132102998867
1188,11.913517951965332,-8.568242302010052,-2.3822885069010034,-4.335137978842638,9.893608844687106
1189,11.923282146453856,-8.059173796586844,-3.090105180579086,-4.938279028620893,9.94412550580244
1190,11.9334979057312,-7.545636682961798,-3.619059233491329,-5.419875842043108,9.970420092951954
1191,11.943279027938845,-7.035048412762761,-3.952800830779152,-5.773524983220605,9.922203954243063
1192,11.955734014511108,-6.531989881871216,-4.088492298430679,-6.000034555736431,9.766425946129228
1193,11.963129043579102,-6.039470141376067,-4.035641376235509,-6.105886963773294,9.489123063831228
1194,11.973124027252195,-5.559987869649322,-3.8139604681225876,-6.101627335144324,9.093383072324068
1195,11.98332405090332,-5.096270598919532,-3.4505987940902823,-6.000266458622541,8.595452497085866
1196,11.993242025375366,-4.6516147780074855,-2.9771212729245944,-5.815788084500463,8.020234545229668
1197,12.003283023834229,-4.229825221040551,-2.426561534205514,-5.561879049038808,7.396899406911886
1198,12.013969898223875,-3.834819607041662,-1.8308290244229897,-5.250988763123997,6.755046952144395
1199,12.02369499206543,-3.469988484842305,-1.2187007186223908,-4.893770618962434,6.1216862380825185
1200,12.034080028533936,-3.1373978582960182,-0.6145278602161373,-4.498903589210044,5.519152409313343
1201,12.043636083602903,-2.836894068711892,-0.03765234415677527,-4.07324622129309,4.963942025788743
1202,12.05558705329895,-2.565114909020233,0.4975835128759848,-3.622231568299523,4.466314519058136
1203,12.063360214233398,-2.3143866835321356,0.981414703803382,-3.1503957480351423,4.030453313337132
1204,12.07353901863098,-2.0715868260460955,1.408027089207691,-2.661959226071911,3.6551387364995853
1205,12.083360195159912,-1.8172540861304962,1.7749075178804254,-2.1614030411079663,3.335321906008055
1206,12.094408988952637,-1.52536924482399,2.0822479943381267,-1.65395049563526,3.0656255943921438
1207,12.10348415374756,-1.164173456312768,2.332355514613903,-1.1458083028298542,2.847465320204432
1208,12.114383220672607,-0.6981805573930117,2.5289721020368052,-0.6440348686734859,2.7014693956566207
1209,12.123723983764648,-0.09133076183313074,2.676471929009771,-0.15602622768377788,2.6825710575042625
1210,12.133999109268188,0.6888792597225858,2.7790044616617307,0.31124600161989796,2.8799816850001174
1211,12.144060134887695,1.6665122628584674,2.839712020025661,0.752064955423224,3.3773997655166035
1212,12.157625198364258,2.8518769998903775,2.860151356172666,1.162743516838347,4.203051354512539
1213,12.163862228393556,4.236306185924313,2.8400410574029102,1.5422697707012964,5.3282942255710575
1214,12.173562049865724,5.787788983549992,2.7774715944881154,1.892713255910304,6.692922623591997
1215,12.183588981628418,7.448407159405137,2.6697107329322396,2.219189314224969,8.21772023265465
1216,12.19367504119873,9.134570340053841,2.5146591008838244,2.529118828278629,9.806137248611334
1217,12.204310894012451,10.740903424807327,2.312856331364926,2.830587993199562,11.345860001684231
1218,12.214353084564207,12.148242442388028,2.069723734624227,3.1298577065912605,12.71454128312199
1219,12.223954200744627,13.23547194184052,1.7974644492753369,3.428443815921926,13.789953697115507
1220,12.23488712310791,13.893944758255032,1.5158097741554133,3.7205338539818165,14.46311696611392
1221,12.244004011154177,14.042267420197936,1.2508132735525692,3.9916486887330436,14.652067000935803
1222,12.257456064224243,13.638761283186325,1.0313312750890953,4.21929080092745,14.313695134433672
1223,12.264119148254396,12.689234512413476,0.8835962974583866,4.375871656135737,13.451604650705415
1224,12.273858070373535,11.248796249436555,0.8250460765632444,4.433636646706932,12.119127526551281
1225,12.283881187438965,9.417918282866394,0.8590005325181435,4.370725257206686,10.418171911213598
1226,12.2949481010437,7.334136394571539,0.9718022233200446,4.177001433427242,8.49595769706287
1227,12.304780006408691,5.161045712969118,1.1337177316381346,3.8582046140108903,6.542740373112978
1228,12.314593076705933,3.075436908443096,1.3041633736993512,3.4375182390543744,4.793295935673531
1229,12.32416009902954,1.252157831191498,1.4404265224605501,2.9540847653450046,3.517007904691919
1230,12.334492206573486,-0.15422075577635544,1.5072578930908975,2.457545454194096,2.887064262746347
1231,12.344182968139648,-1.0304549108664178,1.4839450401839773,1.9977033633034087,2.693464113993185
1232,12.358232975006104,-1.3247121743558758,1.3670665340524097,1.6111107502092574,2.4938747167515407
1233,12.363960027694702,-1.059274530053178,1.1697264907995293,1.310269518378086,2.051128665902825
1234,12.374197959899902,-0.33016368921913813,0.9187918066852423,1.08137856136516,1.4569028926771017
1235,12.384013175964355,0.7075777242834788,0.6503950283624687,0.891854938637988,1.311138879140487
1236,12.395116090774536,1.8653914044480582,0.40331034513228325,0.7036053187393105,2.0340611521873346
1237,12.404979228973389,2.9517053168582046,0.2107848260194265,0.4863514391875127,2.9989218467390573
1238,12.41447901725769,3.8017185141552945,0.09276766150484696,0.22695946537130024,3.809616791596478
1239,12.42442011833191,4.301482408540402,0.051127938449206614,-0.06676701670276004,4.302304360641166
1240,12.435169219970703,4.4022081881815325,0.06989626028825585,-0.36770896340169174,4.41809147721737
1241,12.444366931915283,4.12231707296368,0.12061213607349801,-0.6358094903986325,4.172804697741919
1242,12.457369089126589,3.5371926433545737,0.1706236059784406,-0.828241228600283,3.6368705976253968
1243,12.46430492401123,2.7593206233441046,0.19155051680306157,-0.9113204995998783,2.9122237132285336
1244,12.474733114242554,1.9134979890052368,0.16603713449938173,-0.8707858575984333,2.1088648353446673
1245,12.484313011169434,1.112547180198071,0.09158737692083585,-0.7169238313329419,1.326698630326806
1246,12.495285987854004,0.4387805119786223,-0.01966622849175898,-0.4823400484911005,0.652354980523418
1247,12.504374027252195,-0.06478999652095876,-0.14573701171230596,-0.21242172495425735,0.26563134126936305
1248,12.515410900115969,-0.3924680316909812,-0.26284861054000913,0.04831389930124767,0.4748207881168405
1249,12.52448320388794,-0.56589191685369,-0.35353065253264704,0.26809842263721567,0.7190927256349253
1250,12.53501319885254,-0.6210427969313868,-0.41085818965739307,0.4328675195977682,0.8613204381364895
1251,12.544763088226318,-0.5967297295309131,-0.43719764204291656,0.5436057159350712,0.918006167033318
1252,12.55793809890747,-0.5270089560308745,-0.4395633545454606,0.6097012902805536,0.917981506222093
1253,12.565165996551514,-0.43796013536544975,-0.42529766742583525,0.642799722935387,0.8864979807608079
1254,12.574960231781006,-0.3478693592833923,-0.4001774109253674,0.6535743847493839,0.841614239271
1255,12.584500074386597,-0.26921682147128706,-0.3685605491811914,0.6510648037581868,0.7951100263916501
1256,12.595525026321411,-0.2108229779838497,-0.33401242955633176,0.6427363373536525,0.7544008420587098
1257,12.60460615158081,-0.17902193269396838,-0.29934793682388006,0.6340481345640874,0.7236539757442064
1258,12.615463018417358,-0.17764962179768706,-0.26624817610738066,0.6278437349176641,0.7047235166224625
1259,12.6245698928833,-0.20746178160838424,-0.23516916561977871,0.6243703822254201,0.6987011532026729
1260,12.634990215301514,-0.2658611872107238,-0.20576372296217932,0.6220828753175925,0.7071124269278227
1261,12.64505100250244,-0.3474752421393116,-0.1774510681749703,0.6187863768233217,0.7315220472674389
1262,12.657995223999023,-0.4454806801304355,-0.1498127508797303,0.6126398099319706,0.7721557054177018
1263,12.66472601890564,-0.5530481170775524,-0.1228021923155697,0.602773422639423,0.8272112168491073
1264,12.67505693435669,-0.6642239002914532,-0.09683430945036277,0.5894712354677298,0.8933345457604172
1265,12.684728145599363,-0.7739834936227025,-0.07274180256387261,0.5739868390547304,0.9663346778671902
1266,12.695815086364746,-0.877723806422331,-0.051583120561439176,0.5581253044685698,1.0414239070501
1267,12.70481824874878,-0.9707213830806735,-0.03436044598739174,0.5437325543789425,1.1131602465548065
1268,12.715747117996216,-1.0479542245888924,-0.021727823411776277,0.5321965352456904,1.175548088030191
1269,12.725165128707886,-1.1043447126114379,-0.013719274457668693,0.5240139822254197,1.2224385940947
1270,12.735198974609377,-1.1352033169880487,-0.009485310393570853,0.5184556169447574,1.2480275512806196
1271,12.74546194076538,-1.1366144193102614,-0.0070389470729998365,0.5133923161192439,1.2472022912142926
1272,12.758667945861816,-1.1056901912485047,-0.003042062916919769,0.5053701688005537,1.2157133957818533
1273,12.764895915985107,-1.040844235278556,0.007334889407803404,0.4899770922623767,1.1504295170314087
1274,12.775054931640623,-0.9423116006336639,0.030466059496037454,0.4624445633563732,1.0501115691429461
1275,12.78491497039795,-0.8130143276881164,0.07424160374375861,0.4183529969195758,0.9173458141748921
1276,12.795027017593384,-0.6596424653011133,0.14797294232445446,0.3543132872148161,0.763257544466909
1277,12.804912090301514,-0.4936390511569098,0.2622304160283631,0.26854453802985095,0.6201294000635421
1278,12.815030097961426,-0.33173004043645965,0.4285657729046508,0.16128882040865436,0.5654445375296777
1279,12.82611608505249,-0.19571565708404742,0.6590477017991775,0.03500503712071751,0.6883849535677264
1280,12.83669900894165,-0.11138118711750046,0.965570179496832,-0.10568518374757577,0.9777018453705644
1281,12.84567904472351,-0.10654459734428313,1.3589335755858436,-0.25426968231274294,1.3866164882263605
1282,12.85844111442566,-0.20840198998684178,1.8476988422572718,-0.40276096113992144,1.9025348335648657
1283,12.865084171295166,-0.44043162073061415,2.436814822295065,-0.5421626073726277,2.534953014067403
1284,12.87544012069702,-0.8191642939552293,3.12608371048459,-0.6629074048419322,3.2989203889822103
1285,12.885064125061035,-1.3511514446102941,3.9086585266033254,-0.7552249371901323,4.203996480685397
1286,12.896250247955322,-2.0305116261996488,4.769888420253465,-0.809447157550031,5.246905536281919
1287,12.905237197875977,-2.837534898408249,5.686838754016464,-0.8163301044102146,6.407662144123599
1288,12.916183948516846,-3.7389108677700857,6.62867643978237,-0.7675417043303132,7.649047397443777
1289,12.925599098205566,-4.690045853360255,7.557977713934592,-0.6564129428141687,8.919105066229887
1290,12.93700909614563,-5.639501040640852,8.433016137770087,-0.47885325843304505,10.156231270032793
1291,12.94560194015503,-6.534938967910241,9.210995283757711,-0.23432010425469335,11.296139488470232
1292,12.96404790878296,-7.32947637760545,9.851781740681137,0.072973522115217,12.279419879246106
1293,12.965272903442385,-7.987257390263371,10.321353745600693,0.43242975361052116,13.058086354897103
1294,12.976189136505129,-8.487326411936312,10.594359177748402,0.8254635139434577,13.599873014949273
1295,12.985415935516356,-8.825356164716965,10.655564241484207,1.2249327361006561,13.889867564036587
1296,12.99574899673462,-9.013353703269614,10.500099274002787,1.5965009027298287,13.929875982096002
1297,13.00597620010376,-9.077820268395858,10.132484534992932,1.9023543149155726,13.736557633433765
1298,13.01649808883667,-9.056676413443585,9.564787882839399,2.107067169416618,13.339725895158795
1299,13.0255389213562,-8.994864110516056,8.814636170260965,2.1845066475367925,12.781919279742581
1300,13.03810691833496,-8.938641516628303,7.903654636307954,2.1237562100741036,12.11929903965785
1301,13.046147108078005,-8.92936517259945,6.856339579611329,1.9318788702885141,11.422570235548745
1302,13.058681964874268,-8.998139990499407,5.699117331747179,1.6325468258812899,10.775512553393497
1303,13.065625190734863,-9.162314089448314,4.459734634368481,1.261459918734548,10.267838799341497
1304,13.07620906829834,-9.423876688613095,3.1674228009686485,0.8603964712268128,9.979093201788475
1305,13.086740970611572,-9.769413731973396,1.853805062838007,0.4711874277687842,9.954901077839073
1306,13.09669589996338,-10.171550870731746,0.5537957238120568,0.1300814485258821,10.187446098156634
1307,13.105740070343018,-10.592119863839535,-0.6943570653902771,-0.137161813248261,10.615740591556248
1308,13.116400241851808,-10.987125250924716,-1.8501921968296644,-0.3187602021067594,11.146377909938458
1309,13.12607717514038,-11.313019462615754,-2.8730689686504567,-0.4180543365451757,11.67962773758005
1310,13.13804006576538,-11.53322931271474,-3.724704434952926,-0.4516668778086359,12.128182241207044
1311,13.145799160003662,-11.623661150470545,-4.371919271231129,-0.4449007557744898,12.42662920254761
1312,13.158852100372314,-11.576032707353804,-4.789279419457238,-0.4257017349033751,12.534869467467995
1313,13.165795087814333,-11.398182599347688,-4.96107031495483,-0.4191733482963743,12.438106428790535
1314,13.17643690109253,-11.111037713177325,-4.881925743697513,-0.4443035440874325,12.144371686913818
1315,13.187016010284424,-10.74273482548545,-4.555810667745786,-0.5134005820518823,11.680125963734099
1316,13.197019100189207,-10.32120816778262,-3.9937716976907516,-0.6335937313506214,11.085079676411222
1317,13.20587706565857,-9.866895205943779,-3.2113943120822563,-0.8092673159567424,10.407861837160715
1318,13.216824054718018,-9.386926973948412,-2.2269217147199476,-1.0443614807769026,9.703827556189468
1319,13.22618293762207,-8.871568183082719,-1.0606411318426876,-1.343754945225159,9.035228773554062
1320,13.23843502998352,-8.293163532959811,0.26428444133999457,-1.7132949694764585,8.472413310431815
1321,13.246419906616213,-7.607585047932724,1.7197611979536365,-2.1583739832148328,8.092682317435619
1322,13.260348081588743,-6.758082673212955,3.2700569438349074,-2.6812220240653226,7.972070331867187
1323,13.265953063964844,-5.681388320790935,4.869227848032466,-3.277343536503329,8.168753500010553
1324,13.27668523788452,-4.315813083209657,6.459506163977339,-3.9318078018821376,8.706926842612503
1325,13.287369012832642,-2.6108443253937343,7.971394104920913,-4.616319689929063,9.574447218875632
1326,13.296229124069214,-0.53737923009766,9.326060838115533,-5.288043012717937,10.734411306519213
1327,13.306108951568604,1.9027298145101188,10.440406957647884,-5.890990321961491,12.13780232009782
1328,13.316991090774536,4.669574065741458,11.234784244467106,-6.360484617771397,13.728840575521229
1329,13.326704978942873,7.6824719375680655,11.642799129635172,-6.6307844734929775,15.444819499705067
1330,13.339210033416748,10.823233311168467,11.621937310190381,-6.645319511566865,17.215460422561847
1331,13.34651517868042,13.945899618003141,11.163081068003125,-6.367921047202339,18.964517224269972
1332,13.36422610282898,16.891613580361422,10.296577329782204,-5.7922382214922035,20.61300894267866
1333,13.36704707145691,19.50526655237691,9.092701314821122,-4.946158943439696,22.08160158986643
1334,13.376792907714844,21.649646230942576,7.655475061426137,-3.8892829427667173,23.29034139187272
1335,13.38768720626831,23.214051233977077,6.110588202304556,-2.7039062311964326,24.156625835968054
1336,13.396377086639404,24.11735851156921,4.5897060648691745,-1.4821565069073697,24.59490132625916
1337,13.406317234039308,24.30842007659025,3.2140215166514183,-0.3126957610619638,24.52196973263894
1338,13.417033195495604,23.767563458858255,2.0796379366898257,0.7301593954135953,23.869543344213447
1339,13.42655110359192,22.511423410047833,1.2468466750480107,1.5931153016746187,22.602142087465023
1340,13.437840938568115,20.600372240402415,0.7348883785515856,2.245825586755114,20.73545586521301
1341,13.447107076644896,18.145113404404263,0.5230722823982193,2.6789792729485744,18.34926905945282
1342,13.464294910430908,15.307897137488663,0.5578486792502082,2.900529088601957,15.590252689251093
1343,13.466758012771606,12.294752240983236,0.7640860117048982,2.93193400892153,12.662582561749245
1344,13.476583003997805,9.337534855548938,1.0582794901047763,2.805290880702442,9.807097918503722
1345,13.487921237945557,6.6672767535549475,1.3615871964233495,2.5607916337598917,7.270773878583548
1346,13.496599197387695,4.482466191210266,1.6105931002983682,2.242478322194553,5.264524889824748
1347,13.50752019882202,2.9178049680835674,1.7639321941266755,1.8906091144405752,3.898646616565224
1348,13.51686191558838,2.020895949053092,1.8044970219778662,1.532563763949885,3.1127129051357154
1349,13.52706003189087,1.7444708318435815,1.73854687841616,1.1778971567431704,2.730048615586773
1350,13.539653062820436,1.957883951374939,1.592241761358469,0.8215537528572059,2.6539581689429887
1351,13.546770095825195,2.475101723581729,1.4044099193820367,0.4532273559197938,2.8816507074747895
1352,13.566132068634031,3.0917552537267707,1.215385416525345,0.06712236017487741,3.3227424924127087
1353,13.567877054214478,3.622813146076152,1.0551692241850215,-0.331910522939195,3.7879178684716983
1354,13.576673030853271,3.9332909744648568,0.9360168233654002,-0.7262750951561027,4.10784382581346
1355,13.5883469581604,3.955999273963593,0.8524167352670243,-1.0865807696108278,4.190131539110894
1356,13.597737073898315,3.6932926230962932,0.7869527645880103,-1.375641962061275,4.018967014208254
1357,13.606765031814575,3.2040008962620177,0.7179390307739437,-1.5561009759456874,3.633525621554851
1358,13.617652893066406,2.5804426064721206,0.626028001477706,-1.6004783457124834,3.100342890556683
1359,13.627223014831545,1.9220411266271713,0.4993839036333094,-1.5001322910440285,2.4887794732131843
1360,13.63984203338623,1.3117795587253627,0.33719302861657485,-1.2695849476197145,1.856424167171899
1361,13.647045135498049,0.8007121482010432,0.1502892521108952,-0.9445083523114449,1.2473262729385852
1362,13.665533065795898,0.4038860492829892,-0.0419890585683296,-0.573689710483002,0.7028562482890413
1363,13.66745901107788,0.10744209110903435,-0.21794128957236755,-0.2073615925850898,0.3194386306033968
1364,13.676866054534912,-0.11743077286059223,-0.3602189408818867,0.11426579975448198,0.3957326683232452
1365,13.688669204711914,-0.2999820579553015,-0.4601956473922868,0.3686015303226186,0.6615408960374862
1366,13.697956085205078,-0.4600834704275502,-0.5184726448071802,0.5521071149905543,0.8861788474101626
1367,13.7070050239563,-0.6054170617949318,-0.542202562970446,0.6754584457911307,1.0567675004440185
1368,13.71779203414917,-0.7346439656141877,-0.5410270120505281,0.7550632957507292,1.1842856769258063
1369,13.727525234222412,-0.8432499990933061,-0.5233290095906218,0.805176751498816,1.277988033748418
1370,13.73979902267456,-0.9284582194011964,-0.49408820275451126,0.8339304577503635,1.3422361288679998
1371,13.747004985809326,-0.9911073145247139,-0.45487801218084195,0.8439510346562887,1.3789347568929449
1372,13.76523208618164,-1.0346420108762207,-0.40538549834638543,0.8357112712954207,1.3904081493970555
1373,13.766947031021118,-1.0629791727184812,-0.34510346464237107,0.8106888284197974,1.3806656001603352
1374,13.777159214019775,-1.079099901071092,-0.2742036638234487,0.7724288038020254,1.355097967930316
1375,13.78757619857788,-1.08504356187209,-0.19360213637071225,0.725817778419621,1.3197017715519557
1376,13.79823112487793,-1.0827363280149944,-0.10486204251482151,0.6761220898953084,1.280802515772113
1377,13.807701110839844,-1.0746813150639727,-0.010355408160909395,0.6286757011811853,1.2451025261726296
1378,13.817456245422363,-1.063922918147405,0.08651593678676496,0.5888136273879052,1.219064588475559
1379,13.827867031097412,-1.0533166395164326,0.18148734246257556,0.561306668299897,1.2072608560018208
1380,13.83760404586792,-1.0445357192375464,0.27011912143232736,0.5492154005913702,1.2106431203179613
1381,13.847539901733398,-1.037299945946654,0.34872418462430005,0.5527182266627051,1.2260086349157495
1382,13.868535041809082,-1.0291449363056648,0.415190696702553,0.5684341520467623,1.246852036035176
1383,13.869540214538574,-1.0158206309442772,0.4696021173971278,0.5893188537024174,1.2647981713479137
1384,13.878451108932495,-0.9921932433215361,0.5147833948982266,0.6049064101132572,1.2709685836998335
1385,13.887875080108644,-0.9533981571344173,0.5569171947647065,0.6017243155174786,1.2574565438761178
1386,13.897394180297852,-0.8960264676511982,0.6062341949700321,0.5639812202756079,1.2200238303844766
1387,13.907421112060549,-0.8192949440000309,0.6776171627210918,0.474823852170802,1.1644169850481039
1388,13.91740894317627,-0.7263180867773842,0.790805846685852,0.3183781832064908,1.119944872694345
1389,13.92836308479309,-0.6256182943641038,0.9696999383805274,0.0823876153639374,1.156937310273813
1390,13.937895059585571,-0.532731536629975,1.2401927039732057,-0.23928598082406236,1.3708167688379944
1391,13.947731018066406,-0.47122495238884365,1.6264532805514584,-0.645236571182942,1.8121074643525943
1392,13.967357158660889,-0.4720778904628961,2.1465157435796054,-1.1265967984425962,2.469738390672201
1393,13.969100952148438,-0.5707194661414047,2.808487087467787,-1.6682605988044596,3.316084114588989
1394,13.978607177734377,-0.801974347109235,3.6081864979846303,-2.2504816907190297,4.327451963675791
1395,13.987563133239746,-1.1940288314789358,4.528329022682947,-2.850149881213265,5.482227916956357
1396,13.99765920639038,-1.762772354206193,5.539103127324873,-3.4413477520671494,6.755139093945546
1397,14.007676124572754,-2.5076206564796433,6.599894261156902,-3.9953326373556823,8.112302293330465
1398,14.01760196685791,-3.409542276559206,7.6617715937155,-4.4805976766579825,9.508074359720963
1399,14.028531074523926,-4.43163215513576,8.670434033962037,-4.863651255879536,10.88443353760493
1400,14.038012981414797,-5.5222136272946445,9.569617225701107,-5.110716144216384,12.173406947057508
1401,14.04780411720276,-6.620160631878722,10.30513918812244,-5.190237976747627,13.302668556862079
1402,14.066796064376833,-7.661957977716594,10.829575954564145,-5.076151685808012,14.203965338781293
1403,14.068160057067873,-8.589898488846542,11.107069040933554,-4.752082479028825,14.823482270244245
1404,14.078700065612791,-9.36064094368,11.117224655574326,-4.216657361189569,15.132563636763015
1405,14.087739944458008,-9.95302230725654,10.856889251574026,-3.4894338166155956,15.136407950046483
1406,14.09791612625122,-10.373473817523841,10.339137794006025,-2.615504479655466,14.877754973429097
1407,14.10793113708496,-10.656788475773148,9.589890656564933,-1.6653828866015061,14.432832139993451
1408,14.118966102600098,-10.85999070596992,8.643377152480058,-0.7268711302729254,13.89876643352897
1409,14.128770112991331,-11.04867255154476,7.537640626701188,0.11132602704520168,13.375409707850169
1410,14.138322114944458,-11.278486489387337,6.310939423648967,0.7790198745357486,12.9475513463041
1411,14.14820408821106,-11.57759605192477,5.000009635058155,1.2383113881023848,12.671789210136131
1412,14.166696071624756,-11.936334650395692,3.641098265660246,1.4861206878777575,12.567507157959733
1413,14.16792917251587,-12.307890148670626,2.273126472360102,1.5468382105975698,12.61126370832251
1414,14.17803716659546,-12.620155484621126,0.9401731942466887,1.460326332745964,12.739105270359609
1415,14.187989234924316,-12.7952337347107,-0.3095338341001147,1.270075020909735,12.861839218364935
1416,14.19906520843506,-12.77044334927391,-1.4283078043528967,1.0151386963056073,12.890104464034676
1417,14.208046913146973,-12.514363591313648,-2.3751573657947587,0.7278620856189042,12.75854426741418
1418,14.218020915985107,-12.0337887127899,-3.1209684916728504,0.43597698918436034,12.439557510023521
1419,14.22814416885376,-11.370943764599476,-3.6512620638816635,0.16492718078668528,11.943922208880437
1420,14.23970890045166,-10.593146929142497,-3.9659609823044573,-0.06246930631312678,11.311388543843488
1421,14.248469114303589,-9.778451772134398,-4.076367034864625,-0.2284612501049719,10.596559904312763
1422,14.266020059585571,-9.00079698428611,-4.000288850020256,-0.3227584266961052,9.85499011861167
1423,14.268213033676147,-8.317380119364596,-3.7566697931286135,-0.3435424410046551,9.132874760631388
1424,14.278253078460692,-7.7598455997786395,-3.361082058110482,-0.2969925637143142,8.461694919852507
1425,14.28873610496521,-7.329789624673339,-2.823220512886521,-0.19583161238078886,7.85714579391014
1426,14.298285007476808,-6.998363123391386,-2.147002270113461,-0.05739245155781725,7.3205190422682875
1427,14.308272123336792,-6.709486055266561,-1.3330825300900175,0.09865173261157718,6.84134813631019
1428,14.31904911994934,-6.3860738092986,-0.3828860063353967,0.25302187734644993,6.402543280765303
1429,14.328766107559204,-5.93842294958458,0.6970098071060747,0.39000329669198724,5.991893888478458
1430,14.33862018585205,-5.273630619776718,1.891100282441805,0.5005460981812883,5.624765469644273
1431,14.348681926727297,-4.30499953265836,3.1723616042187834,0.584469387740821,5.379451978530564
1432,14.367764949798584,-2.960883502961376,4.501127663490493,0.6511471045845951,5.426875151775386
1433,14.369322061538696,-1.1929482331667125,5.825593782110972,0.7186046730171972,5.9897463282903525
1434,14.379011154174805,1.016098062860098,7.084019928541392,0.8113298880907608,7.202364181893956
1435,14.388858079910278,3.64565293016664,8.208610074649094,0.9570911297631345,9.032612472343452
1436,14.398585081100464,6.632194265345949,9.13097216807524,1.1829179988994858,11.347244092711353
1437,14.40906310081482,9.86752299545937,9.788983816541132,1.510402855367745,13.981184892988386
1438,14.41908597946167,13.20185960440178,10.134689915852155,1.9506763952434212,16.757272304995546
1439,14.42905306816101,16.45293084423479,10.142429391703525,2.499739696529069,19.488881596471032
1440,14.438889980316162,19.421015227094202,9.815713111551291,3.13517627802707,21.985299330088925
1441,14.448825120925903,21.908240934045352,9.190746845311594,3.8154291917255647,24.062384510182216
1442,14.46782112121582,23.738933617778677,8.334530253642399,4.482631617572869,25.555730278687932
1443,14.469970226287842,24.777452913524886,7.336552442757269,5.069355738770042,26.33335417742053
1444,14.479403972625732,24.94120312736697,6.294904321073887,5.50875909878082,26.30657447598328
1445,14.489246129989624,24.208601666603087,5.299451040655896,5.746695609864191,25.439439585356414
1446,14.49960994720459,22.623170186368256,4.416165753735684,5.753236305382246,23.757316288491378
1447,14.508907079696655,20.294580127459525,3.677401794878877,5.529859906464477,21.35351533345217
1448,14.519305229187012,17.395878089178648,3.0817161699081823,5.10908327686032,18.390657437278666
1449,14.52951717376709,14.154610908066399,2.6033065590486077,4.546580784966488,15.093098152247082
1450,14.539388179779053,10.835282475295706,2.2069812674008635,3.909190115356336,11.728421888391816
1451,14.548798084259031,7.71189445690713,1.862641162439051,3.262294715687069,8.578188330089693
1452,14.566467046737673,5.032321080533234,1.5542654770326383,2.658033434340021,5.899587982964919
1453,14.568939208984377,2.9805745440863753,1.281272186469195,2.1257839146136486,3.8787163186169447
1454,14.57891321182251,1.646800972341543,1.0533968320328315,1.6691944884596919,2.5705658070833493
1455,14.588919162750244,1.014817193086925,0.8820846931365576,1.2740750629764575,1.8523484033380717
1456,14.599061965942385,0.971483574688151,0.7713848619432325,0.9243936353466532,1.5470354017259753
1457,14.609002113342283,1.3345116622964879,0.7112802110453195,0.6162355294338893,1.6329688126742272
1458,14.618985176086426,1.8907189686746737,0.6766501548731972,0.3617043108779681,2.040466529768094
1459,14.629679203033447,2.4361437071031817,0.6334286113167614,0.18330568377066825,2.5238123822890928
1460,14.63918113708496,2.8103519126494585,0.5497237319155206,0.10388023416092279,2.865495621600725
1461,14.649699211120604,2.919137024804325,0.4068859997554211,0.13608338070340753,2.950497563612633
1462,14.668410062789915,2.7426647565843423,0.2059571623388212,0.27411204060443534,2.764012614032873
1463,14.670279026031494,2.328270856218034,-0.03266201965473267,0.49068097000697525,2.3796385863759166
1464,14.679148197174072,1.7687260813370025,-0.27609955117246393,0.741950237753428,1.9378114119443495
1465,14.689148902893066,1.1706461529649104,-0.490060763867763,0.9797373841566396,1.6032645788042266
1466,14.699210166931152,0.6233073909973933,-0.649514178946835,1.1650715320763518,1.472335711439377
1467,14.710955142974854,0.17958959879203307,-0.7440663130365374,1.2759049387579424,1.4878912980916914
1468,14.71964406967163,-0.14551793717482198,-0.7762798743083078,1.3070169075710347,1.5271146355045808
1469,14.729677200317385,-0.362920518805314,-0.756001784919494,1.2655570415086852,1.51818464854694
1470,14.739459037780762,-0.4933631781053394,-0.6953628404104071,1.1660632803110025,1.444520778328746
1471,14.749903202056885,-0.555735874962188,-0.606455362403981,1.0265083287225802,1.3154276180183224
1472,14.771273136138916,-0.5633525511990133,-0.5006405769713533,0.8653894247250307,1.1475652228429398
1473,14.772254943847656,-0.5264839656273314,-0.3879457788392698,0.6994720009237042,0.9575742130289949
1474,14.779261112213137,-0.45637811372598514,-0.27626046557018763,0.5420631468627093,0.7605480147313831
1475,14.789259910583496,-0.36672800901329483,-0.17088979757299327,0.4020952760664752,0.5704150826760884
1476,14.799456119537354,-0.2717373294854231,-0.07474860494229511,0.28420957663918384,0.40025443611546996
1477,14.811089992523192,-0.1827132947976483,0.011090121636210374,0.18954176083289942,0.2635018367931319
1478,14.81979513168335,-0.10573853290978558,0.0868188319132166,0.11671227914581182,0.1798329864627151
1479,14.829981088638306,-0.04172723759017945,0.15329797003961318,0.06277318015945138,0.17082711178997428
1480,14.839619159698486,0.011538749169257276,0.21134806353799693,0.024086459033992452,0.2130288811463094
1481,14.849879026412964,0.056734003279437645,0.2610615759539797,-0.002927704469151594,0.2671712279066469
1482,14.868051052093506,0.09490477050334015,0.30143944919698845,-0.021289759793221806,0.3167426571659216
1483,14.869662046432495,0.1245805329855527,0.33056616625027946,-0.03324709219549418,0.35482343300270835
1484,14.879584074020386,0.14209676197716703,0.3462953262640204,-0.0403028519371154,0.37647876783553813
1485,14.889923095703123,0.14276065917697858,0.34723404432948624,-0.043440789844978914,0.3779407222996917
1486,14.90068292617798,0.12229579813844932,0.3337815330972157,-0.04352289517058059,0.35813491380075946
1487,14.909575939178469,0.0779974061159976,0.30904841001381333,-0.041817742375002236,0.3214704320310532
1488,14.92029309272766,0.009213747792549937,0.2795525445075156,-0.04057096238270495,0.28263142301886757
1489,14.930141925811768,-0.0829389572131775,0.25559399118553366,-0.04350185580669184,0.27221236271041427
1490,14.93989324569702,-0.19643974867567188,0.25119683808420734,-0.05610513971162633,0.32378420749833636
1491,14.950139045715332,-0.3294447997353488,0.2835468677335489,-0.08564009883853604,0.44302023520742817
1492,14.969128131866457,-0.48121497807167385,0.3719512847081359,-0.14073075415904648,0.624276187662743
1493,14.970663070678713,-0.6526445111474866,0.5364348189414773,-0.23058684037164637,0.875715401175688
1494,14.979812145233154,-0.8463432889286872,0.7961229692717524,-0.3639141815722392,1.2175969269286497
1495,14.989892959594728,-1.06638989468329,1.1675448295298956,-0.5475811592041366,1.673377860006513
1496,14.99987506866455,-1.3179256008039897,1.662935290958014,-0.78511614172073,2.2624519944428916
1497,15.010622024536133,-1.6066950607071215,2.2885712414598434,-1.0751912863592856,2.9958410584676627
1498,15.020267963409424,-1.9385163989403456,3.0431598892877694,-1.4103889575093607,3.8739985741085317
1499,15.030317068099976,-2.31854979380504,3.9163189444823368,-1.7766475312479006,4.885663073888119
1500,15.0401291847229,-2.7501944029994947,4.887304633735912,-2.1536518301990104,6.007289908348507
1501,15.050279140472412,-3.2335452934133513,5.924339269674827,-2.5160591425295658,7.203066330075929
1502,15.068871974945068,-3.7635787646787993,6.984986839872554,-2.8351884269910554,8.425726062938313
1503,15.07060408592224,-4.328499844682174,8.017940842579796,-3.080872322698064,9.618474958603873
1504,15.079921245574951,-4.9088758889793604,8.966434402591103,-3.223351665316074,10.718395605111246
1505,15.090466022491457,-5.47822902901391,9.773227512799448,-3.235236330879045,11.66163468077741
1506,15.10075306892395,-6.00559451576647,10.386606472308065,-3.093829962077755,12.39034072706018
1507,15.110116958618164,-6.460141000341073,10.766228720781768,-2.7843878622648925,12.860712203451333
1508,15.120634078979492,-6.817364285843921,10.88751326200425,-2.3045581176334946,13.050876941944134
1509,15.130840063095093,-7.065721497533833,10.743837598766053,-1.6691594126636078,12.966902474155281
1510,15.140079975128174,-7.211971766905947,10.34654200469871,-0.9133497147051276,12.64506527950707
1511,15.150918960571287,-7.283142508657064,9.723058981613702,-0.09202483661123483,12.148683440270378
1512,15.169102191925049,-7.323403622646002,8.913444899949178,0.7259858158771947,11.558927113251881
1513,15.170821189880373,-7.385670127175696,7.9655883190143415,1.4688661102895573,10.961582374157043
1514,15.18013310432434,-7.520154905835219,6.929509572971692,2.075517385453207,10.434491130236411
1515,15.19112491607666,-7.763791308939935,5.851432881953745,2.5075017672615005,10.040084032198154
1516,15.20036506652832,-8.133823195736433,4.768771821351382,2.7550124060479257,9.822950565949775
1517,15.211443901062012,-8.626283426225877,3.70750022000932,2.8357757302013304,9.808157198115623
1518,15.22134804725647,-9.217799881913596,2.6828729926531065,2.788912733279477,9.997183422922785
1519,15.230334043502808,-9.8688800113387,1.7030344465521645,2.666448940871145,10.363641684206215
1520,15.241192102432253,-10.528111037916874,0.7736947502460412,2.5240696070294035,10.854061588842905
1521,15.250736236572266,-11.137871635862945,-0.09815838858572737,2.4119532977616855,11.396461659514918
1522,15.269866943359377,-11.641958886938308,-0.9025585408477816,2.3667981449955287,11.914342285832374
1523,15.271496057510376,-11.994196225888807,-1.6266335778241299,2.406705925651097,12.340944587599214
1524,15.280468940734863,-12.165872907783225,-2.255557827741967,2.5305596641599495,12.629320525526907
1525,15.29039192199707,-12.149924794801954,-2.7736746413092486,2.7225885923251685,12.756427092969428
1526,15.300591945648192,-11.961052230320314,-3.1656792191389655,2.9609121039122273,12.722236275986733
1527,15.311651229858398,-11.632323886319247,-3.418071246438554,3.2266910879279624,12.546143049514344
1528,15.32155418395996,-11.209345489855677,-3.520759131095088,3.50997603453754,12.2623449198416
1529,15.33054804801941,-10.74303847721946,-3.468140813057528,3.8105360723643713,11.914741356026292
1530,15.341466903686523,-10.282095320035614,-3.258974622569098,4.135017127283641,11.551656435497756
1531,15.350950241088867,-9.866290812789295,-2.8950438429919294,4.492942470632597,11.2210296007002
1532,15.37048602104187,-9.521688590200869,-2.3793862491847295,4.893175761064811,10.966640395319024
1533,15.372053146362305,-9.258259898290103,-1.7150888090049143,5.341292409856877,10.825262609962644
1534,15.381656169891356,-9.069761349243686,-0.9053187803909483,5.837824873308889,10.824064498966512
1535,15.390635013580322,-8.935246877256978,0.0452722998383894,6.377330116567403,10.977751397911177
1536,15.401823043823242,-8.821458502731328,1.1281263943065296,6.948294937874058,11.285814185101053
1537,15.41212511062622,-8.68545923108575,2.32804783801295,7.533899922970023,11.731012609329902
1538,15.42173719406128,-8.47711810450798,3.620972739847008,8.113538074427526,12.280165920120023
1539,15.431620121002195,-8.1413647869878,4.972813638763096,8.664746540805558,12.88753384853266
1540,15.441208124160768,-7.620430221192345,6.3395438459749505,9.165047272994176,13.500328308871545
1541,15.45116090774536,-6.856490269835478,7.668414473357476,9.593309695368937,14.065832014737225
1542,15.470164060592651,-5.795148528025488,8.90019947094046,9.930585739674886,14.54007669228189
1543,15.471887111663818,-4.390004833031109,9.97247870930933,10.160629173487651,14.898350890041245
1544,15.481231212615969,-2.6082090960851643,10.823971803355525,10.270311794763437,15.14729100038663
1545,15.491440057754517,-0.4364893502657501,11.399756921874996,10.249976760982575,15.33645997065213
1546,15.50186824798584,2.1132248699270075,11.656930781745851,10.09359166209969,15.563751065938455
1547,15.512328147888184,4.999636364827151,11.570023392121097,9.798446355989428,15.964690916705338
1548,15.521172046661375,8.15024726646389,11.135391110314199,9.364134071309474,16.676644524292815
1549,15.53156304359436,11.462233608154786,10.373939020907963,8.790835811301704,17.784268451603356
1550,15.541613101959229,14.805900243513616,9.331801748673007,8.077559728666994,19.275481240882055
1551,15.551846027374268,18.030480029992116,8.078768249958133,7.221499582391639,21.036034863228352
1552,15.5697181224823,20.972329235369212,6.70409006359198,6.219449253756921,22.879356768876445
1553,15.57101821899414,23.465709806191736,5.30920436827437,5.071419070742937,24.587526901329497
1554,15.581683158874512,25.355736332983795,3.997339209846025,3.786049994023097,25.94660402256159
1555,15.591694116592407,26.511868636314667,2.860849649490653,2.3873150428869785,26.772428212999106
1556,15.601941108703612,26.839643962060993,1.9679466674184123,0.9215262272574426,26.927467624779048
1557,15.612802028656006,26.289123611460294,1.3511402757136755,-0.5378440830312845,26.329315915172323
1558,15.621262073516846,24.86041503387713,1.0004331901808579,-1.8915405312188442,24.9523351172968
1559,15.63124418258667,22.608234575895406,0.8645766130384964,-3.025308682120414,22.826130990175248
1560,15.642194032669067,19.64739114626768,0.862447608237094,-3.8294643495239002,20.035682966539124
1561,15.652064085006714,16.157923544318514,0.9033072827175598,-4.222356263734945,16.72491404249824
1562,15.669928073883057,12.382806422757474,0.9100112760285141,-4.171264793897861,13.098147403613785
1563,15.671195030212402,8.608467816338134,0.8360882482390289,-3.705255030533785,9.409233579047168
1564,15.681971073150637,5.125621672297874,0.6703668824019287,-2.9155214056458356,5.934783429185096
1565,15.691943168640137,2.1811930611900068,0.43064943149779583,-1.94014660628587,2.9508017481551323
1566,15.70185112953186,-0.061326095576324555,0.15282870701885448,-0.9349463960861824,0.9493378045997284
1567,15.71327304840088,-1.5410913417324639,-0.12015139490538983,-0.03938160080572008,1.5462696374638214
1568,15.72203016281128,-2.296755212694069,-0.3485947153690154,0.6497686774403153,2.412219334306713
1569,15.73134422302246,-2.44581942591609,-0.5048967141312232,1.0887888843839666,2.724410870424485
1570,15.742338180541992,-2.153746289984444,-0.5789255664838184,1.282555429189727,2.572688539659321
1571,15.75194501876831,-1.6004372819596564,-0.5782565436185607,1.2720944425772391,2.124618646854064
1572,15.769959926605225,-0.950949174430772,-0.5235073614944508,1.1200876890322382,1.5597950894303483
1573,15.771599054336548,-0.3350163029103801,-0.440900059986184,0.896516143849013,1.0537409464823242
1574,15.781661987304688,0.16307324957344096,-0.3547944637949365,0.6649297745423712,0.7711054411291278
1575,15.7918860912323,0.5046799623376403,-0.28223511333445506,0.4710286554721731,0.7458059518802179
1576,15.801634073257446,0.6886548937884053,-0.2304725333183049,0.33674828220609365,0.8004764561944541
1577,15.81149196624756,0.738020749437859,-0.19773743092862356,0.2620023621833966,0.8077251735465171
1578,15.822251081466677,0.6862172977806773,-0.17679918212637064,0.23255613273557138,0.7458112934562556
1579,15.832098007202148,0.5670792760186243,-0.1595038302856556,0.22933481313919415,0.6321509579864539
1580,15.842716217041016,0.4099428404787885,-0.13984301212729797,0.2350293446974779,0.492796097153355
1581,15.852160930633543,0.2384103770230356,-0.11461050328708546,0.23720345681018204,0.3553034692466215
1582,15.870464086532593,0.07033607594461128,-0.08283908349311948,0.22930247133869167,0.2537500752616591
1583,15.871933937072754,-0.08235762258259875,-0.04535578963386743,0.21055301236258286,0.23059162314734546
1584,15.881930112838743,-0.21379723181027266,-0.004450715923413313,0.18472225880968549,0.2825798614581705
1585,15.892213106155396,-0.3232788733089015,0.036826505791342515,0.1577943968833353,0.3616137347287131
1586,15.901904106140137,-0.413080285847491,0.07558290522572708,0.13538126329275446,0.4412212422004954
1587,15.912557125091553,-0.48576458963940394,0.10969345772918146,0.12091212567446764,0.5124642751951013
1588,15.922213077545166,-0.5422949740260019,0.1379330173748816,0.11511161966707395,0.5712793021967263
1589,15.93225622177124,-0.5818184186424413,0.15980223314265932,0.1166074091667321,0.6145296688212455
1590,15.94239616394043,-0.6029736150713221,0.1752552310677254,0.12310472374616274,0.6398799492853325
1591,15.952380180358888,-0.6057549542002164,0.1845189737415348,0.13243281024927583,0.6469349004646884
1592,15.970788955688477,-0.592807588577323,0.18820849780997723,0.14294389801122298,0.6381819753811538
1593,15.972876071929932,-0.5695369420653629,0.18783387269232266,0.15318347930279894,0.6189661302842597
1594,15.982072114944458,-0.5431593726342667,0.1865922986862735,0.16117153187834923,0.5965023492807815
1595,15.99201512336731,-0.5213229078976559,0.19021878051571042,0.16378460168423306,0.5786070812810838
1596,16.003064155578613,-0.5110141306750271,0.20767341535823272,0.15660677114726732,0.5734015782724
1597,16.012956142425537,-0.5182286859711719,0.2514913938919333,0.13436600880496477,0.5914922793133405
1598,16.022356033325195,-0.5484667215076726,0.33767441797930375,0.09181446254102774,0.650591771152029
1599,16.032356023788452,-0.6076911855017417,0.4850750311323524,0.02472304767373932,0.7779444657884281
1600,16.04220724105835,-0.703151582314948,0.7142988838350692,-0.06940769739265118,1.00472009615484
1601,16.052875995635986,-0.8435276306138809,1.046176199333128,-0.19122907596199226,1.3574211075246525
1602,16.071747064590454,-1.0381247727262817,1.4998481314205052,-0.3400744135063912,1.8555048013398647
1603,16.07393217086792,-1.2952240902873344,2.0905481649331965,-0.5148697750265065,2.512585910810226
1604,16.0822172164917,-1.6200285009694875,2.827240247568414,-0.7149330874451834,3.336001960573173
1605,16.09262204170227,-2.012845800336266,3.7103207363949506,-0.9401766176496921,4.32457630933123
1606,16.103126049041748,-2.4681247265607205,4.729548455494352,-1.1904740626744577,5.466031170111461
1607,16.11261224746704,-2.9746994098030446,5.862299516378832,-1.4643367326524344,6.734959113833823
1608,16.12247610092163,-3.5172058467921348,7.07231494116605,-1.7573277993004917,8.091759795615761
1609,16.13275718688965,-4.078301771589983,8.309422723954244,-2.0605959854582987,9.482884959800367
1610,16.142970085144043,-4.641182232420253,9.511019106578779,-2.3596902950590524,10.842886850319703
1611,16.153252124786377,-5.191959088788444,10.605914641426166,-2.633867199861673,12.098723940456614
1612,16.17278504371643,-5.7217109205954735,11.520427686634045,-2.8564604420230006,13.176403006840221
1613,16.175080060958862,-6.228231643412525,12.185786964106482,-2.997120937088827,14.009532727758224
1614,16.18311905860901,-6.7174535579820285,12.545440016659331,-3.0264654745557484,14.548942943867798
1615,16.193078994750977,-7.204147417151374,12.560979958153055,-2.9227491077400773,14.772285532847208
1616,16.203260898590088,-7.711082573761774,12.216012801908297,-2.6788107144629176,14.692439895391143
1617,16.215079069137573,-8.265686911462959,11.517940435579469,-2.306512345138286,14.363305023362901
1618,16.22331404685974,-8.893623272346744,10.497833982321556,-1.8362243944540693,13.880661845085092
1619,16.232544898986816,-9.609929042797422,9.208222570254607,-1.3110085255052775,13.37388658785827
1620,16.243319988250732,-10.410381269469013,7.718239119088487,-0.7779412991141532,12.982774970706629
1621,16.253530979156494,-11.267047725312604,6.106039260484408,-0.2801859186449761,12.81829099545083
1622,16.270936012268066,-12.13056912034385,4.4499415106959,0.1482485442620126,12.921867677039959
1623,16.272465229034424,-12.93812843556812,2.820951162787562,0.4855876656804576,13.250989708665154
1624,16.282515048980713,-13.623614380654152,1.2786287027448446,0.7239597406946712,13.702623028398477
1625,16.29320192337036,-14.127172352175101,-0.12984835092625271,0.8687844966422376,14.154456745629794
1626,16.30264711380005,-14.403369598718408,-1.3690005752557373,0.9348309904669587,14.498452584778613
1627,16.312746047973633,-14.427857395915199,-2.414053993099226,0.9400842861100969,14.658597619944901
1628,16.322813987731934,-14.201583790052746,-3.249920605057785,0.9005258375019823,14.596503446684645
1629,16.33279514312744,-13.751162160899982,-3.8698628078841093,0.8284027681802051,14.309316897516133
1630,16.343297004699707,-13.1248772925971,-4.273811913166711,0.7339289412070087,13.822681501995115
1631,16.353175163269043,-12.385190540512614,-4.466752819915625,0.6279004720582395,13.181012270756684
1632,16.371435165405273,-11.599366154129022,-4.4574142193804285,0.5226366551113685,12.437322291150727
1633,16.37292504310608,-10.829803760416233,-4.256938443271824,0.43073108721077563,11.644385070428617
1634,16.382912158966064,-10.125377688675798,-3.8771341058226696,0.3628582243835192,10.848368923661738
1635,16.393832206726074,-9.514899208565772,-3.328489707572316,0.3259568680338597,10.085553954166269
1636,16.40288019180298,-9.003531815162589,-2.6186812013593945,0.3223416605719607,9.382162891739746
1637,16.41274404525757,-8.572397566542223,-1.752356335399579,0.34975661724282203,8.756659320561651
1638,16.423673152923584,-8.180955227700842,-0.7325873164243677,0.40227534547649935,8.223535618419234
1639,16.433866024017334,-7.7713829230529266,0.43614818823493606,0.47201450271048134,7.797910968303516
1640,16.44334316253662,-7.274212035984384,1.74401783411608,0.5516068293585132,7.50066857315866
1641,16.453410148620605,-6.614633940897224,3.171673854534474,0.637176478358187,7.363347817139975
1642,16.471938133239746,-5.719096410105007,4.686633120397111,0.7312499960078609,7.4301628723696655
1643,16.474159240722656,-4.522004827953552,6.240874158704094,0.8448116281790042,7.753111931084333
1644,16.48304796218872,-2.9724959592101228,7.770309136061143,0.9977425608644278,8.37907671018926
1645,16.493972063064575,-1.041239728013611,9.196800875358036,1.2171797112454432,9.335247878961102
1646,16.503125190734863,1.2730128371188785,10.433253581494773,1.533738699368062,10.62194409593565
1647,16.514039993286133,3.9378057468175145,11.391859275908713,1.9759152251549328,12.214131685829145
1648,16.524291038513184,6.883335856224309,11.994856864153883,2.5632967209389785,14.065112647280834
1649,16.5333251953125,10.002042620737294,12.186351606840999,3.2996041746655087,16.10699878258118
1650,16.54370903968811,13.152428782940762,11.943096198705083,4.167073867817603,18.24797069050969
1651,16.553964138031006,16.167285591231806,11.281868789974538,5.123921425268087,20.36949330628954
1652,16.564881086349487,18.865475834117593,10.2614021695589,6.106092211835607,22.32682053120288
1653,16.573041915893555,21.066027253622895,8.977795060357247,7.033286289688676,23.955070954369564
1654,16.5832781791687,22.6038410335286,7.553667983650929,7.818167192740376,25.08217031538352
1655,16.594340085983276,23.347058554058478,6.122467616718116,8.377404548257038,25.54898549472278
1656,16.60413122177124,23.215909273484,4.810005756899324,8.64357464538838,25.23541125930873
1657,16.613983154296875,22.201226153180187,3.7158437942794116,8.57690255113069,24.088694343607102
1658,16.624232053756714,20.37834040601704,2.8980116162900402,8.174623303308152,22.147227708736988
1659,16.634110927581787,17.910413475117764,2.3653369636239243,7.474580711536072,19.551140289365033
1660,16.644020080566406,15.036363717148099,2.0805929783401536,6.5507879014800645,16.532813526622252
1661,16.65393590927124,12.042390758219033,1.9739995133464057,5.501738089267839,13.385999075722049
1662,16.672132968902588,9.22046284315652,1.962462808167822,4.434124634373102,10.417756792545426
1663,16.673177242279053,6.8207840601909995,1.9682848916789537,3.4442180258869834,7.890492913653245
1664,16.683671951293945,5.0087794633944736,1.9329169121570609,2.5998489877083304,5.965170094901993
1665,16.693373203277588,3.8390188028224355,1.8246184695994814,1.9290215797655255,4.6678069993551405
1666,16.703532218933105,3.2548666232926573,1.6402725986157984,1.4210622118137255,3.912041505791993
1667,16.71460199356079,3.1134919650612103,1.4010416959570082,1.0396410433726249,3.5689779418449374
1668,16.723621129989624,3.2270539043238324,1.1421871788094615,0.740258983912114,3.50234947087109
1669,16.73378896713257,3.4073972640204917,0.8998671946058422,0.4846254717454631,3.5573837199052107
1670,16.744408130645752,3.503123934872155,0.6995185785990826,0.24908541811881224,3.5809561698516883
1671,16.75396203994751,3.4219283898434028,0.5497338054917554,0.027891149804032154,3.4659167731430167
1672,16.771773099899292,3.1359499339257924,0.44269486782073986,-0.16787770395905494,3.1714891861033623
1673,16.77377223968506,2.6723298373785975,0.3593073738968971,-0.31589087922534265,2.714817783251459
1674,16.783839225769043,2.093973094909561,0.27638275907510396,-0.39175116271920735,2.1481572859571862
1675,16.793689012527466,1.4764597842392684,0.17409484199169778,-0.3789386181012336,1.5342219476895949
1676,16.80373191833496,0.8868874727527635,0.04234646285605724,-0.27613535354714724,0.929845872024397
1677,16.814545154571533,0.369688083950118,-0.11572048590250875,-0.09943895403685434,0.39993576465748326
1678,16.824233055114746,-0.05742840429891679,-0.28469019563665865,0.12147102698510177,0.31480428762768486
1679,16.834289073944092,-0.3978621586984197,-0.44250272252833667,0.351843145906642,0.6913006264214139
1680,16.844247102737427,-0.6652442444969479,-0.568613685820511,0.5613371756557793,1.0396974816319933
1681,16.854331016540527,-0.8732617259734056,-0.6506871421138712,0.7302601364119071,1.3112054247122018
1682,16.873230934143066,-1.0303046683922912,-0.6864230568407615,0.8504629630376387,1.5019958635669821
1683,16.87509822845459,-1.1395165350210796,-0.6804993385447953,0.9220774150578356,1.6161076828930958
1684,16.883820056915283,-1.2021279731287606,-0.6399300833001971,0.9492067844872821,1.6600047274053003
1685,16.895071029663086,-1.2211369629882418,-0.571350535377388,0.9372300490830485,1.6419552617402182
1686,16.90390920639038,-1.2031143912858522,-0.481140504904285,0.8923660476027866,1.5733078487355536
1687,16.914737224578857,-1.1575055316436293,-0.37673125666274626,0.8222543315425773,1.4689614294707753
1688,16.924602031707764,-1.094405611745664,-0.2670160619382055,0.7360105076980176,1.3456346784306958
1689,16.935620069503784,-1.0224091497776673,-0.16125771504644223,0.6433444591051549,1.2186946349567624
1690,16.944420099258423,-0.9475574337154755,-0.06742127724424946,0.5533162227744579,1.0993496082684968
1691,16.95546817779541,-0.8734582053455605,0.008936656828956594,0.47333100876361545,0.9935045768278815
1692,16.973082065582275,-0.8021164870393602,0.0649206434840902,0.4085221027289438,0.9024942421693505
1693,16.975133895874023,-0.7349387516164959,0.10012438977949784,0.3613346820875561,0.8250591582036075
1694,16.984162092208862,-0.6734697739662102,0.11657626485590994,0.33114166885687407,0.7594776934361991
1695,16.994308948516846,-0.6196130633250269,0.11904058345350768,0.3139949407058334,0.7047579950173216
1696,17.00420308113098,-0.5754028746730866,0.11554448757131047,0.30276222322825797,0.6603816779744014
1697,17.01520013809204,-0.5426997987402361,0.11777551626316829,0.287724013710412,0.6254432443070898
1698,17.024960041046143,-0.5232359596143568,0.14101563148880378,0.2574601609156672,0.5999558418887712
1699,17.036559104919434,-0.5191782666828156,0.2035079277662865,0.19984021982122474,0.592366155952293
1700,17.044506072998047,-0.5340044493831095,0.32538924228744764,0.10309234320817813,0.6337719954254133
1701,17.054917097091675,-0.5732716235803467,0.5273640555184478,-0.04297108934981995,0.7801280125564146
1702,17.066370010375977,-0.6449125109824325,0.8291634130532415,-0.24553665954046291,1.0787550062669724
1703,17.075366020202637,-0.7588921209910907,1.2477297602749218,-0.5072721165760915,1.5459857069952678
1704,17.08433198928833,-0.9262169978628056,1.795131663192022,-0.8249237927118738,2.1819429138056488
1705,17.09452199935913,-1.1573895640983072,2.476388591038122,-1.1883164673887041,2.9806286389912136
1706,17.104392051696777,-1.4605231142718667,3.287527035665745,-1.5800127275529576,3.92904593976514
1707,17.114874124526978,-1.839467920994939,4.214199344376332,-1.975771173632805,5.004676820442025
1708,17.124495029449463,-2.292345511416592,5.231093112913905,-2.3458305547804787,6.174310009339407
1709,17.137178897857666,-2.8108211718239997,6.30223701907925,-2.6569964756186186,7.3944937200647285
1710,17.14509105682373,-3.380335587861376,7.382266963869519,-2.8754508750991454,8.613521460326771
1711,17.154957056045532,-3.981400076790026,8.418761442403486,-2.970076595043048,9.774888530105383
1712,17.16630220413208,-4.591923036147639,9.355750867504876,-2.9159745427542845,10.822141146682235
1713,17.175177097320557,-5.190411187837444,10.138289990920777,-2.697870660060022,11.704862166520595
1714,17.184431076049805,-5.7598054462936075,10.717555801587446,-2.3132185545696466,12.385166176539558
1715,17.19466495513916,-6.291588132254856,11.05550479362336,-1.7747873854000242,12.843602988691853
1716,17.20547604560852,-6.789535977073005,11.128024259903674,-1.112145385734116,13.083103227903656
1717,17.215535163879395,-7.272127019967513,10.925953335579038,-0.3707205927667276,13.130031281139189
1718,17.22572898864746,-7.772298617332464,10.454118451060813,0.3932838474386716,13.032723835424981
1719,17.237555980682373,-8.333190928970948,9.729156409484148,1.1226726314627047,12.85919707199192
1720,17.244829177856445,-8.999044504432412,8.777191504578226,1.7712200168302246,12.694845924579607
1721,17.255468130111694,-9.802079687356828,7.6323446952620495,2.312700649061564,12.636535760910025
1722,17.265772104263306,-10.748783054504806,6.336349969589836,2.7429982392095265,12.775355471776013
1723,17.275243043899536,-11.810816175495194,4.938513166595548,3.0754837938301627,13.165974768094024
1724,17.28611993789673,-12.924779592172944,3.4948482629526363,3.3330214985269806,13.797569503247892
1725,17.294854164123535,-14.001503347289143,2.0657325594874933,3.540154263313992,14.589106867781044
1726,17.30491590499878,-14.94175223089436,0.7121317413443345,3.717721371259575,15.413777718028339
1727,17.315760135650635,-15.653419642496536,-0.5090288557860743,3.880791412161723,16.135340060402427
1728,17.324904918670654,-16.0658379323185,-1.5494013694020672,4.039441204058877,16.638175330007723
1729,17.337684154510498,-16.13875638714823,-2.37268362965791,4.200813542442039,16.844462584141084
1730,17.345712184906006,-15.865600606541,-2.9564701385725978,4.370779394964522,16.720099007063087
1731,17.355731964111328,-15.27201967886884,-3.2925095445347057,4.5545030967398645,16.27325113893417
1732,17.365973949432373,-14.411189348100939,-3.3856764096207606,4.756351560524849,15.548892672624236
1733,17.37566304206848,-13.357115496621066,-3.251966744425974,4.979947311498362,14.62148068159401
1734,17.38641119003296,-12.196748461441926,-2.915865027786495,5.22868389268512,13.58683469913354
1735,17.39614701271057,-11.021391475471841,-2.4075476021405304,5.506388519555597,12.553392770102818
1736,17.405076026916504,-9.917727798050214,-1.7603389561675278,5.817569057595902,11.632034545027633
1737,17.415175914764404,-8.958820960434995,-1.0085630892175825,6.166873961587582,10.92282046745109
1738,17.425381183624268,-8.19578888191125,-0.1857022086917207,6.557972340859105,10.498211368163917
1739,17.437828063964844,-7.651363185801558,0.6771022870048813,6.992559251984907,10.387382297798917
1740,17.445678234100342,-7.316438228964879,1.551847155572723,7.46940396718703,10.570264593544819
1741,17.45556116104126,-7.149760851608535,2.4136586066576737,7.9819484642072664,10.984367500677834
1742,17.466759204864502,-7.080219785179866,3.241039261507311,8.514395765396413,11.538144692752153
1743,17.47583508491516,-7.011270948675732,4.017826479010936,9.039877885952855,12.12519039537628
1744,17.486833095550537,-6.827212306892838,4.7359975486299515,9.523780667209254,12.638943739930433
1745,17.4951810836792,-6.401315245364419,5.3957118872157555,9.930117650937849,12.98837096027996
1746,17.505260944366455,-5.6063433754017655,6.000439976734628,10.22652012009254,13.115566313505639
1747,17.516415119171143,-4.327889792046115,6.5498422353632675,10.386356898981093,13.019503561705324
1748,17.525792121887207,-2.4799535090862297,7.035352415294897,10.389435899530685,12.790102866086801
1749,17.539443969726562,-0.021032892949285634,7.440885943704648,10.222617096671339,12.643936345733648
1750,17.545797109603882,3.0316079569545753,7.747184538570522,9.880353156308654,12.916303402007667
1751,17.556153059005737,6.591830876143992,7.936743429355049,9.36476010208801,13.933515792245517
1752,17.5663480758667,10.500694177776436,7.997410699767274,8.685365120956579,15.800592501557311
1753,17.575751066207886,14.530605071844228,7.924615278131239,7.859118817662858,18.322220379922264
1754,17.587244033813477,18.399521334036667,7.722895209314223,6.910792360156122,21.117399148117443
1755,17.59570598602295,21.796743023579683,7.406696713506821,5.87284670315027,23.75810369201518
1756,17.605582237243652,24.41997008936816,6.999524768685597,4.783565407591591,25.849773387048977
1757,17.615732192993164,26.019347315227076,6.530714515843626,3.6836362746255484,27.078143270940906
1758,17.626320123672485,26.43922733372931,6.030129786406704,2.613461787226465,27.243813788800228
1759,17.638119220733643,25.646074856302636,5.521813372722331,1.613605411812363,26.283365478630845
1760,17.645641088485718,23.734756659647157,5.0181034807709946,0.727828644443889,24.270347561830757
1761,17.656748056411743,20.91364210947044,4.516692708355045,0.004758198985149731,21.39581645895245
1762,17.667137145996094,17.474962523302292,4.003137443619706,-0.5062092207742628,17.934761564027735
1763,17.67555809020996,13.756568081957923,3.458736098815588,-0.7664135254645889,14.205400750658484
1764,17.68767023086548,10.097904840773534,2.8704500088083216,-0.7645441529622975,10.525763306678243
1765,17.69596290588379,6.793613375106628,2.239017393707025,-0.5314100653103865,7.172780370070134
1766,17.70586395263672,4.0537000725723535,1.5831956851225673,-0.14238259502348308,4.354223887115755
1767,17.715868949890137,1.982117688701157,0.9391014621266625,0.2993270594343502,2.2136618478304375
1768,17.72581911087036,0.5793716145984079,0.35349813042783534,0.6931416538427126,0.9700916185135051
1769,17.73669195175171,-0.23576296453086054,-0.12873453631016887,0.9693388136131048,1.005870017378108
1770,17.746514081954956,-0.5953204814342442,-0.47885145049683087,1.1012591870338142,1.3403271929959477
1771,17.756463050842285,-0.6499615625477393,-0.6931481293022315,1.1005081476294651,1.453967862417708
1772,17.767657041549683,-0.5407822048086466,-0.7916232868689527,1.0038559494139987,1.3881064759321549
1773,17.777570247650146,-0.3794728266894851,-0.8079343276469286,0.8593535265177075,1.2390504378452165
1774,17.785892963409424,-0.23931309561425138,-0.7770115010941522,0.7135309943852197,1.0817319956964497
1775,17.796016216278076,-0.15620493548765785,-0.7260950957975865,0.6001389788751683,0.9548721715378133
1776,17.805917024612427,-0.1367541889319791,-0.671105238289083,0.5332193840814495,0.8679901270231654
1777,17.815967082977295,-0.16973439555292344,-0.6174216614630542,0.5077210311204865,0.8171902584585579
1778,17.82748794555664,-0.23703007321571573,-0.5634869905706318,0.507055460557891,0.7942330163324677
1779,17.836477041244507,-0.32092334662938377,-0.5053657383363827,0.5124316333940958,0.7880180853248369
1780,17.84622097015381,-0.40697105020304486,-0.44001678131943434,0.5088197661552882,0.7862173732349129
1781,17.85645294189453,-0.48412136374666026,-0.3661619361832759,0.4867367805238661,0.778049324824686
1782,17.86859703063965,-0.5442295120940964,-0.2838251294051787,0.4420597331369194,0.7564121056521564
1783,17.87704610824585,-0.5819902870389381,-0.19412617594209544,0.37536411031855127,0.7192328424848273
1784,17.888256072998047,-0.5951187279440587,-0.0994682756652446,0.29083609669256916,0.6698103264006469
1785,17.896240234375,-0.5842861810209535,-0.0033784755423814116,0.194728590581752,0.6158903956216533
1786,17.90625309944153,-0.5526047188377752,0.09016761587725698,0.09382688300813646,0.5677197003890103
1787,17.916143894195557,-0.5048020960651509,0.1774733254432618,-0.005520131510866085,0.5351190608524024
1788,17.926233053207397,-0.4463893322957564,0.2555523396666661,-0.09762603910752225,0.5235468248479612
1789,17.93698501586914,-0.38307964975923947,0.3222816531068376,-0.1772477902239708,0.5310670966348964
1790,17.94681215286255,-0.3205329332145209,0.37643163213661,-0.23944742577353537,0.5493425203438282
1791,17.95669412612915,-0.26428967704840567,0.41771393757028397,-0.27992648613192384,0.5680605642649275
1792,17.967604160308838,-0.21966423967872528,0.4469673176570292,-0.2958479860671725,0.5792738489757275
1793,17.977219104766846,-0.19145219717973708,0.4665230103785545,-0.2868228769716717,0.5801422461534106
1794,17.986329078674316,-0.18350581718904735,0.48064867046025006,-0.25562918145038915,0.5744943931549046
1795,17.99644899368286,-0.1984117500273,0.4958958994564892,-0.2083272182459963,0.5733063714182594
1796,18.006327152252197,-0.23753939147105482,0.5212247815102079,-0.1536643141337719,0.5930539240229387
1797,18.017081022262573,-0.3015648360161232,0.5678781146016763,-0.10196944778048235,0.6510181807335663
1798,18.026998043060303,-0.39129765470232514,0.6490767610436959,-0.06397367556750225,0.7605965602526291
1799,18.036757946014404,-0.5084353590639296,0.7796607828320193,-0.04998341103409509,0.9321350717633724
1800,18.04663896560669,-0.6558913928159602,0.9757260274427783,-0.0695755777158984,1.17774172075792
1801,18.05703711509705,-0.8375655979359056,1.2541220538429003,-0.13165960261454232,1.5138271062910338
1802,18.069091081619263,-1.057690769357203,1.63157071916363,-0.2445535050700708,1.9597293670447495
1803,18.0782310962677,-1.320042397458177,2.123260450086971,-0.41572382065804425,2.5344769016610074
1804,18.086518049240112,-1.6272954503230852,2.7409520833267855,-0.6510212278488132,3.2534193466021923
1805,18.096668243408203,-1.9806936607353853,3.49071819370588,-0.9535118750228767,4.125220694866666
1806,18.106553077697757,-2.380032027249165,4.370443235248427,-1.322192062255209,5.149127923517844
1807,18.117280960083008,-2.823815561919064,5.3672965652687,-1.7508513432138681,6.3124707661354975
1808,18.12723016738892,-3.3094206276549833,6.455615367742723,-2.2271725704536034,7.588644959778079
1809,18.138092041015625,-3.833183056460695,7.595866835322569,-2.732041678386442,8.936136584493955
1810,18.14688205718994,-4.390507881455022,8.7354044848521,-3.2391332649159863,10.299312369230199
1811,18.157814025878903,-4.976211022647246,9.811480892576336,-3.715070209349195,11.611614018201792
1812,18.16928505897522,-5.585276274550222,10.756427264866836,-4.120676065024242,12.801406555542556
1813,18.17867994308472,-6.214041156693696,11.504202959984173,-4.413972941850454,13.800150375013299
1814,18.187355995178223,-6.861557600125456,11.99701526028886,-4.555450966546832,14.55202670984546
1815,18.19853711128235,-7.530571959103816,12.190799624014968,-4.515405156712008,15.023780923368976
1816,18.20697593688965,-8.22734130051676,12.0589976228016,-4.281840203149464,15.213241734332316
1817,18.21741104125977,-8.959568333824619,11.59473991575868,-3.8663937206824692,15.154565610597135
1818,18.22754406929016,-9.732398031882884,10.8117047370554,-3.3057817081521286,14.917798881678799
1819,18.23678398132324,-10.543623057187146,9.74349758925811,-2.6574418652189755,14.600196221658992
1820,18.246899127960205,-11.380133359495504,8.440892535004608,-1.9898466440850902,14.307885648633611
1821,18.25825810432434,-12.217199355485599,6.966528520549692,-1.3698663283813586,14.130428637410226
1822,18.2679660320282,-13.020572912255773,5.387913482657738,-0.8507282490508324,14.116963880867122
1823,18.278727054595947,-13.750070685383383,3.770855178427608,-0.4638528453177977,14.265305888477231
1824,18.28922700881958,-14.36343785899234,2.175329639887489,-0.21654362584625633,14.528843633035704
1825,18.297082901000977,-14.820459664879193,0.6541926127929222,-0.09580848516938471,14.83520043406136
1826,18.307011127471924,-15.08795353943552,-0.7465110642791369,-0.07664827855886414,15.106604374771388
1827,18.31729412078857,-15.145546649214737,-1.9871700414034545,-0.1314488674612456,15.275919182875642
1828,18.32800602912903,-14.990761434049219,-3.034759429994379,-0.23663843039699684,15.296688887378796
1829,18.337690114974976,-14.641308836044603,-3.863229049056471,-0.37428704766126997,15.14703119135755
1830,18.347780227661133,-14.133195035236357,-4.453734679878152,-0.5295549333263976,14.82779089851854
1831,18.357707023620605,-13.514681491720562,-4.794595164198024,-0.6876010891524731,14.35644642204362
1832,18.36874508857727,-12.837407470342542,-4.880873003175209,-0.8331328595772522,13.759217353993593
1833,18.37943124771118,-12.146678664110523,-4.713381705976621,-0.9528252800504377,13.063906218650532
1834,18.38727211952209,-11.473012934370429,-4.29714034961463,-1.038602824487961,12.295289211871012
1835,18.397293090820312,-10.826534396058014,-3.639755449244952,-1.0898043185470656,11.473854636174341
1836,18.40724205970764,-10.194860735626886,-2.7505575343793702,-1.1134295243195558,10.617931883110964
1837,18.418297052383423,-9.544149817018136,-1.6412682563790535,-1.1226031746775287,9.749092014484269
1838,18.42734003067017,-8.822449064441015,-0.32842934847182403,-1.1337091224399332,8.901054415399184
1839,18.43823194503784,-7.964568386124092,1.1629566670184344,-1.1626596327331937,8.132563876674885
1840,18.447360038757324,-6.898076443069085,2.7956764932909177,-1.2208414290654723,7.5425273923590535
1841,18.457937240600582,-5.5503162935811785,4.517624245803398,-1.3114215044383213,7.275628230425652
1842,18.469561100006104,-3.8563901043486917,6.261079113383734,-1.4267045356538492,7.4905501889396495
1843,18.47970199584961,-1.7679134326952857,7.944449461837133,-1.5471036416194879,8.284523211090727
1844,18.48749804496765,0.7379290911804423,9.47668757637353,-1.6421552227120755,9.646181655934297
1845,18.497401237487797,3.6498351812578376,10.7643579571221,-1.67388366487406,11.488889659272452
1846,18.508064031600952,6.915534414777601,11.721041076278535,-1.6025898464761505,13.703127904599391
1847,18.51763606071472,10.438154804168272,12.278240832327812,-1.3946867844044735,16.175766593241125
1848,18.52818918228149,14.077364999580082,12.396316419476543,-1.0314203712131604,18.785757745838723
1849,18.53858208656311,17.656315845259016,12.073366354302262,-0.5163252540541903,21.39575322629976
1850,18.547898054122925,20.97425997316127,11.349689201653968,0.12117447316937435,23.84847394800857
1851,18.557814121246334,23.82345095396734,10.305853373883753,0.8276796396297881,25.97022300069709
1852,18.56797790527344,26.00821057651482,9.053781684366136,1.5329658009433655,27.58165992697617
1853,18.580198049545288,27.364138635511118,7.72206865111937,2.160637543309982,28.51481688718399
1854,18.587953090667725,27.776012822401594,6.438027014774541,2.6404281828817724,28.634366435144692
1855,18.59826111793518,27.193530647911203,5.309320714937057,2.9205925709217126,27.860489165093075
1856,18.608243942260746,25.643985327514926,4.408099606995777,2.9782709536690115,26.189987084694522
1857,18.618276119232178,23.239616247461576,3.760971242440938,2.824711088682422,23.71083424829825
1858,18.62846708297729,20.175642579503606,3.348107729909006,2.502905140763765,20.604147956433845
1859,18.63829207420349,16.715123484380147,3.112661207859313,2.078036852319439,17.128988588138725
1860,18.64839506149292,13.159551844351236,2.9779006242707755,1.6236294885611102,13.589623599950276
1861,18.65819215774536,9.807997174029447,2.866714201696352,1.2062160061400629,10.28930590144183
1862,18.66856622695923,6.9115460325506115,2.7180183867068184,0.8705254767136451,7.477627104646899
1863,18.679873943328857,4.633590623600248,2.4966961218529264,0.629330217117039,5.3009159693555
1864,18.688337087631226,3.0280733427280904,2.1962760902389165,0.4650650756180621,3.7695016060555333
1865,18.69791412353516,2.0431573588908747,1.8349365543551315,0.3457926553304099,2.7678613968511994
1866,18.707961082458496,1.5477136527063577,1.4457646601391243,0.2462008703389955,2.132197896968415
1867,18.718996047973636,1.370220931770575,1.0636074101933803,0.1591330018663545,1.7418637826085854
1868,18.72798490524292,1.3390711953666188,0.7134387762420631,0.09256515205113462,1.5200904121402146
1869,18.738670110702515,1.3159211604147074,0.40558136124592714,0.059407686713112674,1.3782866226797286
1870,18.7479190826416,1.215785321915947,0.13917202135490944,0.06933345266783048,1.225687532845593
1871,18.75975799560547,1.0109112907837314,-0.09010472096583075,0.12508014906294737,1.022597448786163
1872,18.77067518234253,0.7205673928210363,-0.28384113600201366,0.22087102058049302,0.8053366785488463
1873,18.781029224395752,0.39213556925788223,-0.4393360676120652,0.3419188826886493,0.6809515455016537
1874,18.788055896759037,0.07934525947860711,-0.5517234457651973,0.4668165107353939,0.7270571404669087
1875,18.798707008361816,-0.1764187293698303,-0.6172272229976107,0.5735425571031932,0.8608391706296115
1876,18.80813789367676,-0.3561282344607121,-0.63561249204193,0.6460259932981144,0.9737454202391259
1877,18.81888198852539,-0.4622605712131981,-0.6110336942798484,0.6773754538634498,1.0226849547834103
1878,18.828661918640137,-0.510484970388703,-0.5513227181181637,0.6691666199480074,1.0061489003912871
1879,18.838552951812744,-0.5202324272505108,-0.466380506739241,0.6288793286685778,0.9400222154055458
1880,18.84858798980713,-0.5087068225949017,-0.36651001385753657,0.5671279456060762,0.8454267137368093
1881,18.85870599746704,-0.4891201166627903,-0.2611816800866279,0.4950978204999025,0.7433547002614895
1882,18.870201110839844,-0.4713847822336603,-0.15829526088575072,0.4224555681418901,0.6524796622075284
1883,18.88131809234619,-0.46301636534896456,-0.06381493582270002,0.3561028867328742,0.5875931981860472
1884,18.888269901275635,-0.4690215166535219,0.01834584810003519,0.2998111555404398,0.5569600364595051
1885,18.89934206008911,-0.49107560713739073,0.08622815725463848,0.25450834841280545,0.5597901807290849
1886,18.908459186553955,-0.5271353054459944,0.13947400236582755,0.21901000789968286,0.5876138282441997
1887,18.918578147888184,-0.5722260249017431,0.17872773330878666,0.1909687030880043,0.6291703042798996
1888,18.928514003753666,-0.620122182718593,0.2049876765680466,0.16773232426841203,0.6743186202745123
1889,18.93947005271912,-0.6650186999446112,0.21918034396111835,0.1468756145516992,0.7154455539067066
1890,18.94918298721313,-0.7024709958833149,0.22209384432638626,0.1263814867525771,0.747504820010387
1891,18.960537910461422,-0.7295281443403985,0.2146151560966672,0.10460486726498786,0.7676022126509718
1892,18.970426082611084,-0.7444908165301386,0.19813564027246197,0.0801607955313437,0.7745644330745562
1893,18.98160123825073,-0.7467229638350974,0.1750276114789163,0.05178773856549414,0.7687078894901591
1894,18.98846912384033,-0.7366303943466961,0.14916598067988657,0.018185144585530073,0.7518015211152196
1895,18.998692989349365,-0.7157529930172029,0.12648479432277818,-0.022118200516444683,0.7271794585946754
1896,19.00851607322693,-0.6869865839946845,0.11550874111683916,-0.07078686953141913,0.7002168355310666
1897,19.0191011428833,-0.6549650709737136,0.12776531981599726,-0.1296092996518838,0.6797806938267206
1898,19.02868223190308,-0.6264970464183034,0.17798851510543148,-0.20038644203208647,0.6814199783030822
1899,19.039506912231445,-0.6108604339531989,0.284007159991674,-0.284743814209331,0.7313614540201752
1900,19.048700094223022,-0.6198124705826163,0.466178753956152,-0.38380426500974724,0.8653299042385565
1901,19.06078410148621,-0.667262831247787,0.7462394982911597,-0.49773698311194686,1.1179692210128311
1902,19.071059226989743,-0.768577528664615,1.1454750183213818,-0.6252730055064989,1.514526581668908
1903,19.082324981689453,-0.9394387964912752,1.682173259612749,-0.7633099202025069,2.0724126427882825
1904,19.088818073272705,-1.1941727212986148,2.368521289915772,-0.9067521980702246,2.8032376170747986
1905,19.098913192749023,-1.5435728307142509,3.207453722256676,-1.048705416902953,3.7108165564440134
1906,19.10964608192444,-1.992521893708027,4.190125034606008,-1.1809784726720316,4.787692706873801
1907,19.119362115859985,-2.53800411911455,5.294423916276741,-1.294664645306985,6.01236609478277
1908,19.129724979400635,-3.168137345907891,6.484595616389229,-1.3805861742285386,7.347999233471769
1909,19.13890910148621,-3.862547841050957,7.71202415399744,-1.42953340915512,8.742891863916538
1910,19.14950203895569,-4.594021007814738,8.91744083655243,-1.4323242403570247,10.132982424892012
1911,19.16140508651733,-5.33120526530772,10.034819307824186,-1.379810851090057,11.446537734455415
1912,19.172029972076416,-6.04222683915146,10.99679290405998,-1.2631893319714815,12.61085273242665
1913,19.182820081710812,-6.6991182632919415,11.740813878908801,-1.0752043546220171,13.560271400268777
1914,19.18957209587097,-7.282721707098809,12.214915867111394,-0.8127357718163148,14.244393442279238
1915,19.1996910572052,-7.787205852207191,12.382157713670615,-0.48051486245621694,14.635207520356655
1916,19.210052967071533,-8.222798526751637,12.223475821558557,-0.09456055943583383,14.732166116059659
1917,19.219583988189697,-8.615108526075694,11.739186921476602,0.31683337968672337,14.56464856712695
1918,19.22964310646057,-8.999782706090501,10.949244292681476,0.7162172171629015,14.191370844278014
1919,19.238989114761356,-9.412611585434075,9.891695427568168,1.0639429958316875,13.695797530206121
1920,19.249922037124637,-9.87763437645331,8.618566420708932,1.3264323224759593,13.175992210424713
1921,19.26187896728516,-10.397933324895329,7.189458982192385,1.4824366182106323,12.728038191827025
1922,19.27183508872986,-10.9532490343161,5.66487595036081,1.5254356936076,12.425435123006958
1923,19.28304100036621,-11.504950208712202,4.101788184773668,1.462476928388836,12.301519596528124
1924,19.289146900177,-12.005307515207562,2.552342473347834,1.3105864225268629,12.343398940602473
1925,19.29928302764893,-12.407315158592409,1.0644590025074467,1.0917300386085764,12.500656658346248
1926,19.31042504310608,-12.672868164465802,-0.31759471733679306,0.8276200390493622,12.70383441514597
1927,19.319494247436523,-12.778604160835897,-1.5537093805036544,0.5361297236958414,12.883872562976851
1928,19.32930994033813,-12.719158648013439,-2.609488176610423,0.23047971743743004,12.986128990478829
1929,19.34067702293396,-12.50752897056358,-3.4582197280435225,-0.07920103834226833,12.977050413764722
1930,19.349512100219727,-12.17241634303135,-4.0824332178526985,-0.3836496012428589,12.844499508461107
1931,19.362097024917603,-11.752936759625843,-4.474222179563667,-0.6733269689035744,12.593790366482871
1932,19.371373176574707,-11.291687749213393,-4.633873841983457,-0.9389767539780933,12.241596152204401
1933,19.383270025253296,-10.82754276528809,-4.56706819325422,-1.1733662249218622,11.809766403861008
1934,19.389323234558105,-10.389519653382234,-4.281629538639133,-1.3733541857301002,11.320802615257683
1935,19.40003490447998,-9.992617373278238,-3.7850158133239713,-1.5415983444479213,10.796076700888113
1936,19.41079092025757,-9.63589056941434,-3.083367486077376,-1.6873925968814902,10.256940864406783
1937,19.419453144073486,-9.302551294740608,-2.1823460372259613,-1.8262770883207773,9.728071896362682
1938,19.429532051086422,-8.961651198787475,-1.0894729868202397,-1.978326793782399,9.241856983352282
1939,19.439366102218628,-8.570812398320081,0.18264170648334507,-2.165386767351981,8.842006729943572
1940,19.450225114822388,-8.079472244597858,1.6129029271719653,-2.407846665172759,8.583533839083445
1941,19.46273708343506,-7.432237496435272,3.1688346726754553,-2.721695412238042,8.525684330490204
1942,19.471248149871823,-6.572253489693553,4.804739381211997,-3.116502546393406,8.717374867231253
1943,19.483641147613525,-5.444873338279532,6.461370213332018,-3.5946541329028583,9.182455501598533
1944,19.48953509330749,-4.002134255762632,8.06748540718997,-4.1517394777761405,9.916568967525853
1945,19.49964809417725,-2.2084503645289972,9.543484447677082,-4.777624628731826,10.898671731394955
1946,19.51112413406372,-0.04752726148964264,10.807035252642544,-5.457626877369228,12.107021141677519
1947,19.52019500732422,2.470050084808983,11.78027463877015,-6.173368468850577,13.527250135874421
1948,19.530506134033203,5.299639000020227,12.397924540117232,-6.903233146654734,15.14758509829369
1949,19.54002904891968,8.357321577017792,12.615518041759573,-7.62268353658654,16.944067507614456
1950,19.55034589767456,11.518622663569634,12.41676630430256,-8.304869132954842,18.863340235410842
1951,19.56298804283142,14.623330993350619,11.818890352195243,-8.921965497445408,20.811762223221486
1952,19.571420192718502,17.488025534570667,10.874604270905296,-9.447615682791406,22.657129059885623
1953,19.583903074264526,19.926003223214007,9.669530952948122,-9.860525717360806,24.244079704626667
1954,19.590994119644165,21.771105818315846,8.31432619682887,-10.148297787000153,25.41843851681714
1955,19.60048198699951,22.89906242280234,6.931735026481521,-10.309303108491768,26.051827976238194
1956,19.611539125442505,23.240284147022955,5.639973400356607,-10.350339786313445,26.05858094530935
1957,19.62098002433777,22.782572141312407,4.534987478580573,-10.27990975584221,25.40252446890361
1958,19.62997817993164,21.567515117293105,3.675224083230568,-10.099809701712651,24.097118840380762
1959,19.6408371925354,19.685848992197503,3.072922085295024,-9.799217023936585,22.203606800880483
1960,19.65062093734741,17.27409383617193,2.6947291939088003,-9.354648307521737,19.82839701657188
1961,19.66369390487671,14.510422862850868,2.4722604474284537,-8.736584406428197,17.117019321987943
1962,19.67200207710266,11.604974146815985,2.321099783155887,-7.921201255723124,14.241079962043024
1963,19.68419909477234,8.780339495003954,2.164008909063033,-6.905055385757128,11.37792099139399
1964,19.69056606292725,6.242353882731955,1.9511077773086094,-5.7195282941240055,8.688314420140301
1965,19.700194120407104,4.148119851354673,1.6699168067532277,-4.438304269030414,6.300322628816179
1966,19.71096992492676,2.5827907469897533,1.342403404501264,-3.1700212057239865,4.303706470926222
1967,19.720317125320435,1.5539580740458596,1.0112367177639805,-2.0350124967137613,2.7529368421791958
1968,19.730227947235107,1.0036183215358292,0.7211735512512389,-1.1348784896834816,1.6778826576054056
1969,19.74184513092041,0.8303128861133138,0.5032423140613791,-0.5270644897914689,1.104748519757693
1970,19.75061416625977,0.913218865561427,0.3672799606787326,-0.21287492455934767,1.0070645458160161
1971,19.762134075164795,1.1331267327701304,0.3031751578993756,-0.1419594663818706,1.1815429992095283
1972,19.772170066833496,1.388034507037439,0.2876872349261482,-0.23133154311964033,1.4362861903911186
1973,19.784770011901852,1.602524761801137,0.29371703152940803,-0.3917986939185076,1.675667485914937
1974,19.790220022201535,1.730919267709498,0.29923329606546956,-0.5515077271936227,1.841136293150636
1975,19.800347089767456,1.7549890951384841,0.29253910561053936,-0.6682008308375282,1.9005415551095886
1976,19.810352087020878,1.6778994869451953,0.27185499605277513,-0.7279106307472151,1.849082397710987
1977,19.820369243621823,1.5165380184101704,0.2407776510825313,-0.7343799940153786,1.7021091075939565
1978,19.83047604560852,1.29399964701032,0.20352556218398346,-0.6970252592630908,1.4838133147319843
1979,19.84170413017273,1.0334842466569323,0.16273287997484606,-0.6240211742825108,1.2181847578532077
1980,19.851269245147705,0.7546442351921149,0.11978746395171455,-0.5220478639531265,0.9254031178284939
1981,19.86105704307556,0.4727878042053696,0.07610570626234273,-0.3992645377775454,0.6234842078655576
1982,19.87185907363892,0.20007582817774452,0.033839076836078265,-0.26691617115562516,0.3352904152619149
1983,19.88486194610596,-0.05298847349764493,-0.004504487705631707,-0.1377649062088885,0.1476727399212348
1984,19.890547037124637,-0.2770687174269305,-0.036985987703519824,-0.02299683797092301,0.2804708398740769
1985,19.901066064834595,-0.464594680807884,-0.06279661734566627,0.06970447418394632,0.4739729383691627
1986,19.91054105758667,-0.6106085439405223,-0.08205765294305269,0.13582064746878483,0.6308910370408881
1987,19.921603202819824,-0.7130147105844783,-0.09520055136419579,0.1724721983353884,0.7397295327946262
1988,19.93249106407165,-0.7721468024409165,-0.10252603932752777,0.17756641626982794,0.7989068190013346
1989,19.940864086151123,-0.7902488536431852,-0.1042364216657022,0.1505590400179287,0.8111883300548391
1990,19.9510760307312,-0.7714313385385719,-0.10073929525995898,0.09423323907035042,0.783667416085788
1991,19.961894035339355,-0.7220785369753256,-0.09275179610744798,0.016053836406469717,0.728188186463465
1992,19.97410011291504,-0.651203979413153,-0.08086155707038305,-0.07203193044604653,0.6601468118677519
1993,19.9859619140625,-0.5702699051355826,-0.06455045938947318,-0.15547748846977708,0.5945988361337483
1994,19.99179315567017,-0.492388043101249,-0.04098072870160929,-0.21994109274902107,0.5408322192636325
1995,20.00152921676636,-0.4312186206495409,-0.003959813178724651,-0.2539524872771471,0.5004568360104122
1996,20.01082801818848,-0.3999783037911863,0.056548489977280236,-0.25068643494417636,0.475419881670304
1997,20.02115201950073,-0.41074223275255134,0.15417803751992126,-0.20866025354655476,0.48581802192812673
1998,20.03120422363281,-0.47391198619774866,0.3052168566823158,-0.1316509966499186,0.5788625788422027
1999,20.042108058929443,-0.597569326929342,0.5271616993013739,-0.028309324252661965,0.7973643931959473
2000,20.051508903503414,-0.7865430328202204,0.8370039996541069,0.0881940505821982,1.1519565219543217
2001,20.061628103256226,-1.0413105193355183,1.2494162409639522,0.20049372147348493,1.6387697438058793
2002,20.071150064468384,-1.3571381108361067,1.774878958876437,0.2876315195944465,2.2527208130636853
2003,20.08557510375977,-1.7239054030012588,2.417686999974299,0.32629210150054844,2.9872272768979773
2004,20.09066104888916,-2.1267872999254056,3.1738379325116486,0.2928276266104935,3.831738438343639
2005,20.102410078048703,-2.5475846414351313,4.029029308213864,0.16593626649106533,4.769779818425526
2006,20.11184310913086,-2.966319456459539,4.957146703417267,-0.07037104521516153,5.777309636930997
2007,20.121673107147217,-3.3628496807083152,5.919575931617557,-0.4239871388332306,6.821283037605307
2008,20.132676124572757,-3.718508097673808,6.865592806398356,-0.8925356703468644,7.858771340265351
2009,20.14166212081909,-4.017877931445589,7.734106095747231,-1.4620920277949547,8.837276349080271
2010,20.152611017227173,-4.250729768809942,8.456999329140947,-2.1069698697771337,9.696848109189197
2011,20.161749124526978,-4.413976081790302,8.964129437574814,-2.790720522216004,10.374339615480581
2012,20.17359304428101,-4.513360018843905,9.189810711604562,-3.4684827428963847,10.809875675168083
2013,20.183122158050537,-4.56449887513886,9.080392040682437,-4.090767955553312,10.955480457735055
2014,20.191354036331177,-4.5928166383930575,8.602252635501026,-4.608676251146502,10.785759679631576
2015,20.201155185699463,-4.6318455980620845,7.749197765372657,-4.9804271885131675,10.310611748641536
2016,20.21171998977661,-4.719472725688708,6.54789865440962,-5.178924040894312,9.590081012081805
2017,20.22154402732849,-4.892138511896522,5.059786645207095,-5.199532988426543,8.750405899861619
2018,20.231847047805783,-5.177828201831911,3.3778889407655437,-5.0658006233392125,7.99264502772743
2019,20.242055892944336,-5.589477685295217,1.617694855903309,-4.828939485487084,7.561603930101435
2020,20.251399040222168,-6.1203920120411075,-0.09760617552955067,-4.557313788260833,7.631371718847825
2021,20.261961936950684,-6.742570672895953,-1.6550421432186029,-4.317428088146513,8.17567178103076
2022,20.2725682258606,-7.40854275048435,-2.9678225243975573,-4.154923549296534,8.99765891343824
2023,20.286262035369877,-8.05751146356,-3.983480262039618,-4.084932380598381,9.873108858790182
2024,20.291531085968018,-8.625889792472147,-4.681898809691426,-4.09417548518407,10.63430411825557
2025,20.30153799057007,-9.060317832028174,-5.066767899035798,-4.1503200161433895,11.179742948586421
2026,20.311917066574097,-9.329536503569997,-5.156655871520688,-4.213036811545261,11.46215644301583
2027,20.321557998657227,-9.431248349275293,-4.97938009101322,-4.243612944287013,11.47828046082718
2028,20.3315372467041,-9.391330591187725,-4.569115579778609,-4.212289226429986,11.261318216863073
2029,20.342501163482662,-9.255298163698631,-3.9637165872864295,-4.103530632833427,10.872467840278727
2030,20.35223197937012,-9.074872143582244,-3.2008985579103255,-3.919244036139,10.390357540297085
2031,20.362171173095703,-8.894069160801523,-2.3142192215873347,-3.6794188021005363,9.899404000440429
2032,20.37176203727722,-8.738671864122795,-1.3308453086942538,-3.4197319462498115,9.477874327542352
2033,20.387338161468502,-8.61133077387413,-0.27232728393553063,-3.186368640438736,9.185974360916687
2034,20.39158821105957,-8.492807064408296,0.841995418522096,-3.029175451781376,9.056082598770319
2035,20.402244091033936,-8.348134360262055,1.9906246031925883,-2.9948453170958147,9.089721232312591
2036,20.41218900680542,-8.135144376371933,3.146530489473411,-3.121744549796724,9.264260206826405
2037,20.42215704917908,-7.812493521170412,4.275987684071719,-3.437145604615978,9.546365570204905
2038,20.43208122253418,-7.345136234158066,5.33965200969467,-3.9565348956506954,9.905406516820989
2039,20.44195508956909,-6.706631123792821,6.295135632565746,-4.6839978487272695,10.322183369321976
2040,20.452045917510983,-5.879054634339354,7.10030755145721,-5.612673760126686,10.792578814001867
2041,20.462276935577396,-4.852042766467028,7.716906469331311,-6.724712033972652,11.327608591573467
2042,20.471554040908813,-3.62239715509349,8.114278853247901,-7.990708451812743,11.950510617516187
2043,20.48427104949951,-2.1950679163153035,8.272982644038605,-9.369007161397041,12.69010875351783
2044,20.492440223693848,-0.585578295533221,8.187796825537488,-10.805480748064051,13.569868569491165
2045,20.502357006073,1.176677991178646,7.869558673729183,-12.23451506084134,14.594447012070859
2046,20.51259422302246,3.0452720669849347,7.3453304443803855,-13.581881155725657,15.738330820876646
2047,20.52240109443665,4.954918486967278,6.6566760734718216,-14.769820333279696,16.941373800166993
2048,20.532360076904297,6.82215889414248,5.8561779868623836,-15.724000120612775,18.113002301765697
2049,20.54229497909546,8.549364596972145,5.002591719592431,-16.38128213021915,19.143248500574106
2050,20.552385091781616,10.032221131978552,4.155193265803914,-16.696784148325168,19.91717080342642
2051,20.562386989593502,11.170035526179229,3.3679752490896018,-16.648677575311456,20.329569989088917
2052,20.57346510887146,11.877410721757254,2.6843758742822468,-16.239579642361747,20.29784979371837
2053,20.587852001190186,12.095260346943917,2.1331076260236905,-15.49419643638259,19.77158552604634
2054,20.592231035232544,11.799085136663203,1.7254287994246882,-14.45380633033659,18.7378769352077
2055,20.602095127105716,11.003156457408291,1.4540571671239653,-13.169014653819191,17.222272823990885
2056,20.613236904144287,9.760520847240976,1.2940558154094395,-11.692838301105448,15.286098756668402
2057,20.62213897705078,8.159782222090337,1.2064331025064718,-10.076401107073504,13.021957841023639
2058,20.63212490081787,6.319724930892867,1.1453901617926077,-8.369021899632518,10.549472469342192
2059,20.642269134521484,4.38188042537824,1.0690355952958122,-6.622885134026384,8.012884665638843
2060,20.65249490737915,2.49970920421525,0.9506379205870075,-4.899734372739795,5.582083435878065
2061,20.66253900527954,0.8226111740961389,0.7852561183273736,-3.274501029498811,3.46636312398271
2062,20.67202615737915,-0.5248266711609997,0.58805632123541,-1.8310165110685772,1.993457984386078
2063,20.6865029335022,-1.463510630752277,0.38564377971184893,-0.6486617241799707,1.646616689934698
2064,20.69198608398437,-1.972850640124203,0.20565037805430963,0.2162352450990211,1.9952918101008161
2065,20.70348310470581,-2.0908971672220424,0.06888834488179552,0.7468388370049454,2.221343020880975
2066,20.7125301361084,-1.9020436660433258,-0.015015057964137723,0.9721926803702904,2.1361540598156235
2067,20.72305011749268,-1.5167524435963482,-0.04886342259089078,0.9594685220982547,1.7954123354038198
2068,20.7325758934021,-1.0486647122746457,-0.04561977281535186,0.7948963891724844,1.3166772998579583
2069,20.742939949035645,-0.5940702280389026,-0.022765547565021842,0.5618737488441975,0.8180096672034881
2070,20.75272512435913,-0.21796662329725314,0.004211963748195792,0.32502822989963975,0.3913700802845254
2071,20.763646125793457,0.0505900933802023,0.02574962568081494,0.12412112535086856,0.13648609646878213
2072,20.774278163909912,0.21356808232600513,0.038352924383354574,-0.023841492898403427,0.21829037858042952
2073,20.785656929016117,0.2921789436982096,0.042581355220327466,-0.11826354056640195,0.31806913081954724
2074,20.792668104171756,0.3133950755091267,0.040890908723157246,-0.1677241551737595,0.35779873113012595
2075,20.802553176879883,0.3000561842526926,0.03606184130616197,-0.1837825567733374,0.3537092001642332
2076,20.813671112060547,0.26714518171544155,0.030179205171274016,-0.17679324575756047,0.32176572888366983
2077,20.82301616668701,0.22320276797447647,0.02419838940548557,-0.15409841434434216,0.2723074714082007
2078,20.83280611038208,0.17379292792365184,0.018144385950976626,-0.12027510480020177,0.21213038766879477
2079,20.84319806098938,0.12416698698695226,0.01170659211111423,-0.07844601647331104,0.1473372405632906
2080,20.85342693328857,0.07985379388827005,0.004800322102815923,-0.03151723271606114,0.08598259968574719
2081,20.863306045532227,0.045525649618277125,-0.0021816381632104014,0.017295689678507656,0.04874920716992789
2082,20.875120162963867,0.023380406959434552,-0.008411379375633504,0.06459314234003927,0.06920743290969679
2083,20.88937091827393,0.012274214982741963,-0.012803525004054194,0.10712275908322905,0.10858117755658915
2084,20.89286994934082,0.008181869719914386,-0.01420820701556309,0.14195467649678198,0.14289837759056878
2085,20.90279006958008,0.0057320838940049185,-0.011581614698852967,0.16646876283038564,0.1669695768188917
2086,20.91340923309326,3.83729552911208e-05,-0.004144187506634347,0.1783615811517127,0.17840972337154953
2087,20.922901153564453,-0.011974144121519398,0.008452367605563029,0.1758594219939822,0.1764691444690544
2088,20.93442916870117,-0.031184975523293718,0.025957498764661163,0.1581217910962079,0.163244587230262
2089,20.943490028381348,-0.05679659084427701,0.04741651248293825,0.1256470343140957,0.14581274162261815
2090,20.95365190505981,-0.08733837116335524,0.0712003784022906,0.08048220800738169,0.13847335761019455
2091,20.96327114105225,-0.12161396501284863,0.09517576384809939,0.026160176905369134,0.15662929919378354
2092,20.97383117675781,-0.15920402033215963,0.11695684484335561,-0.03257813851699592,0.20021528102237357
2093,20.98939323425293,-0.20044478097153068,0.13419457794869044,-0.09015803542001932,0.25751653601341706
2094,20.993370056152344,-0.2460690359728276,0.14489969750318027,-0.1405512648811557,0.31827747463620903
2095,21.00306797027588,-0.2967989054572735,0.14779494090727588,-0.17763123029080233,0.37614596742892886
2096,21.013973236083984,-0.3531248857340206,0.14266827525926992,-0.19550172740289962,0.4281031967967976
2097,21.022963047027588,-0.4153676392583867,0.13068368220058738,-0.18879898979637122,0.4746088485107707
2098,21.034564971923828,-0.48397944842119034,0.11459501984043448,-0.1529765703588076,0.5203556054709629
2099,21.04308795928955,-0.5599554725690601,0.09881197704722852,-0.08460794142736958,0.5748673254070008
2100,21.053458213806152,-0.6452043671211792,0.08930684805827875,0.018229939530374897,0.6516108648247257
2101,21.06345105171204,-0.7427495013165795,0.09340681656549102,0.1554048396879899,0.7645602129887329
2102,21.07425594329834,-0.8566642646244748,0.119542062705972,0.32393221881426204,0.9236319880918599
2103,21.09014892578125,-0.9916789521765382,0.1769951632539019,0.5169417280912638,1.1322469616860158
2104,21.093539237976078,-1.1524427118588028,0.2756403247404298,0.7225616861592642,1.3878750603151568
2105,21.103069067001343,-1.3424866293747382,0.4256108051989165,0.9230062012939876,1.683851345926704
2106,21.11313199996948,-1.5630046386077117,0.6368305419444932,1.094196323992478,2.0114179662370506
2107,21.12319302558899,-1.8116371746312612,0.9184136804415693,1.206193723551601,2.362290464710774
2108,21.13310408592224,-2.081501871516288,1.2780337829190627,1.2246211363018,2.732346485877172
2109,21.14423513412476,-2.360754642618396,1.7213843975472332,1.1131730835944613,3.126576568837322
2110,21.15311408042908,-2.632961775244611,2.2517397208526995,0.837322436391576,3.564257053419376
2111,21.16405296325684,-2.8785068474652307,2.8694485500554174,0.36928646395303627,4.081165169994752
2112,21.174530029296875,-3.0771442383065066,3.5710056302295814,-0.30606968115480593,4.72383070443856
2113,21.190113067626957,-3.211591415399884,4.347246828009981,-1.185544401183209,5.53338864804289
2114,21.193401098251343,-3.271640411100583,5.180625405354771,-2.243890495325845,6.52514790063546
2115,21.20339012145996,-3.2577946185470243,6.042552837516835,-3.433337178876455,7.675511367633563
2116,21.214448928833008,-3.183313837806766,6.892436410155638,-4.6862867450097365,8.921908434548358
2117,21.22345924377441,-3.07399762811786,7.679373602382227,-5.920409709419418,10.172192068085764
2118,21.235750198364254,-2.965734398809536,8.346162037370373,-7.045606927557529,11.317887535046953
2119,21.243629932403564,-2.900335960498525,8.83467809291332,-7.972564325507479,12.248480216480653
2120,21.253878116607662,-2.920374022839201,9.091876732237237,-8.622391793809772,12.86609681268678
2121,21.26407504081726,-3.063826997561998,9.07590907324724,-8.93645575494853,13.100358881992282
2122,21.275719165802,-3.359414571033135,8.761792738400207,-8.885218531484057,12.922917108879869
2123,21.29030704498291,-3.823392147854145,8.145896815284292,-8.47470353401855,12.361009765833776
2124,21.293872117996216,-4.458169215781938,7.248452468922162,-7.749192962960901,11.509358258737638
2125,21.304023027420044,-5.252526854512089,6.11341074599775,-6.78889231044995,10.53811596584218
2126,21.313714027404785,-6.182733518721761,4.805117497481818,-5.701463951098274,9.686177734989414
2127,21.323731899261475,-7.213772944440393,3.4014570670108157,-4.607026094772596,9.210489656395781
2128,21.33486795425415,-8.300246336372926,1.983796316229229,-3.6184059884219137,9.269433583871477
2129,21.3447380065918,-9.387040290841483,0.6257161265952264,-2.8216426962040257,9.821899693949446
2130,21.35368704795837,-10.410499183211995,-0.6157505755726005,-2.2630553857802886,10.67141329412767
2131,21.366831064224243,-11.301702802618898,-1.70304924629902,-1.9466485291351898,11.593890782219217
2132,21.376277923583984,-11.993654067352644,-2.6150118208018815,-1.8411995049776515,12.412737019988306
2133,21.39095401763916,-12.432410279330853,-3.340826410463527,-1.8932130033907884,13.011925373851097
2134,21.39371490478516,-12.58912290743887,-3.8747654284189452,-2.0408480944386818,13.329099131165872
2135,21.403770923614506,-12.468122440350175,-4.213583767050973,-2.2246431102168507,13.347561661867472
2136,21.4138081073761,-12.107169169534126,-4.35646493550721,-2.3933621322132876,13.087800209734791
2137,21.423873901367188,-11.569142316814599,-4.306313747302777,-2.5062529027172116,12.596455678058714
2138,21.43658208847046,-10.92776623670735,-4.070941645417981,-2.533958622689944,11.933548806035208
2139,21.444302082061768,-10.25162236926963,-3.6630122786590587,-2.4589198844707756,11.160632023051484
2140,21.454381942749023,-9.590297602273615,-3.0984836121784247,-2.2747930018681193,10.331945218421433
2141,21.46430206298828,-8.9650658478407,-2.394344814797289,-1.9847112982030246,9.489171285495962
2142,21.475999116897583,-8.365026890231688,-1.566984733148812,-1.5989737973574465,8.659436080534133
2143,21.491610050201416,-7.74856911052535,-0.632193692821538,-1.1326866648189209,7.856396833567508
2144,21.49407196044922,-7.049404491956538,0.3930570577204377,-0.6033282069267055,7.086085129824101
2145,21.504082202911377,-6.186060482428742,1.4877120012417213,-0.02802318654116926,6.362500812564906
2146,21.514101028442383,-5.073447230766,2.623669480420892,0.57926684028361,5.740998033278829
2147,21.52407693862915,-3.6350420359156788,3.763829087843697,1.2098671186465986,5.370634827481249
2148,21.537622928619385,-1.814489476005686,4.861932040595468,1.8609879360820951,5.51307820769371
2149,21.544331073760983,0.41416690907186976,5.864543552832321,2.534494528775257,6.402192423539688
2150,21.55449390411377,3.0382157412763933,6.715063601098112,3.234137065528837,8.04875621546335
2151,21.564325094223022,6.00072003991412,7.359301676921113,3.961703218561996,10.288977333113593
2152,21.57570219039917,9.198651172872854,7.752020653043136,4.712504844034443,12.919624975611736
2153,21.59186792373657,12.485739275399055,7.863875939674636,5.470799265941384,15.73734013917412
2154,21.594284057617188,15.680831966007807,7.688036910320802,6.206178131992396,18.534051086760496
2155,21.60468816757202,18.581966849654485,7.245221925449962,6.872178104254185,21.095249812393067
2156,21.614907026290894,20.985341135587753,6.5852488226853465,7.408197505896225,23.208434564184575
2157,21.625014066696167,22.707071196942618,5.783332791807214,7.745536294396551,24.67896580109523
2158,21.635935068130493,23.604635651741653,4.930562641688477,7.818018706291271,25.3497670345707
2159,21.64488410949707,23.594782603746754,4.119643419671736,7.576506422369176,25.12147841173995
2160,21.65513801574707,22.66551390250887,3.428549101809363,7.004142572815419,23.969532381518544
2161,21.665101051330566,20.881010623301883,2.9060820869631216,6.12674994348552,21.954475229816218
2162,21.675151109695435,18.379353942030797,2.563767578140754,5.013517694155829,19.222614681431406
2163,21.69186115264893,15.363111183108305,2.376807500829014,3.7675245692532764,15.995894488914074
2164,21.69466805458069,12.082354442303687,2.2934245657284564,2.509612711083327,12.551543373935072
2165,21.70443606376648,8.809505326804615,2.2491914168077565,1.3593099888479085,9.19314797978485
2166,21.714518070220947,5.806766431744341,2.182369405059333,0.4150519454086826,6.217197176409919
2167,21.725018978118896,3.2899111821769584,2.0471245806120835,-0.2633480048000748,3.8837593652016307
2168,21.736356019973755,1.3960645686203135,1.8223379466807732,-0.6641682974069995,2.389776432838484
2169,21.745145082473755,0.16552129641488905,1.5141984763465657,-0.8190081072519826,1.729441703290863
2170,21.754558086395264,-0.4554107396097649,1.1514748217035742,-0.78447281015833,1.4658413272407413
2171,21.76566505432129,-0.5920031232618979,0.7742500445610258,-0.6208684000575111,1.1555987191255301
2172,21.775809049606323,-0.407530646229769,0.4200685595185481,-0.37942671054112764,0.6974979935343913
2173,21.784651041030884,-0.06803627034825406,0.11358130031745352,-0.09974744171192458,0.16576850724060369
2174,21.794445991516117,0.2867690109617527,-0.13608795318534497,0.18883611685311089,0.3693446570323175
2175,21.804697036743164,0.5610108379577409,-0.33107181002164326,0.46640181961667365,0.8011693710064045
2176,21.81466007232666,0.7069377058581153,-0.47817451683543716,0.7213085029068453,1.11745145079348
2177,21.82471799850464,0.7182854520320572,-0.5842292568067746,0.9472661152227391,1.3246021697698795
2178,21.83758020401001,0.6167545250608949,-0.6546034164099741,1.139650569724529,1.4517903423126024
2179,21.845269203186035,0.4362151200182797,-0.6934999494038305,1.2931207215065068,1.5308125329854032
2180,21.85545921325684,0.20983986427518092,-0.7043513125193568,1.4012050863230454,1.5822513182248705
2181,21.86532020568848,-0.03592829563309337,-0.6897892919094883,1.4572079228871921,1.6126236511304481
2182,21.877334117889404,-0.28083165956982015,-0.6516945226147572,1.4557499033462271,1.6194999082789
2183,21.884822130203247,-0.5077823849328149,-0.5917612688710323,1.3945814616594399,1.5977740149933881
2184,21.895450115203857,-0.7015009703876162,-0.512363008828408,1.2762105061393592,1.543804625025766
2185,21.90503692626953,-0.8498687807426849,-0.41721182343346036,1.1087300633293509,1.4579523323565955
2186,21.91496515274048,-0.9462905965771717,-0.31154142350592223,0.905429812141515,1.34622698548391
2187,21.92496109008789,-0.9908085498855057,-0.20182090130952982,0.6831501174118854,1.2202980544323925
2188,21.93583106994629,-0.9889091651983688,-0.09505616548938993,0.4597215910292949,1.0946784700857999
2189,21.94525623321533,-0.9486268403005218,0.0022344435696851185,0.2512470796025333,0.9813373374560959
2190,21.95526123046875,-0.8775787240070084,0.08510795905729208,0.07015522189498682,0.8844826378645324
2191,21.96550703048706,-0.7814492993525408,0.15094014343561696,-0.07543658033798431,0.7994602003927592
2192,21.97687005996704,-0.6644287206425741,0.19953374015665634,-0.1812277446413501,0.7170235238145414
2193,21.9849750995636,-0.5309529441406923,0.23264528302696022,-0.2457550048189016,0.6296271746040683
2194,21.99522018432617,-0.3874892118472065,0.253285784348002,-0.26955690407491395,0.53568881114431
