time,ax,ay,az,atotal
0.008613109588623047,-0.37,-0.46,-0.53,0.79
0.018890857696533203,-0.37,0.32,-0.33,0.59
0.04251909255981445,-0.1,0.35,-0.05,0.36
0.04339313507080078,0.11,-0.14,-0.09,0.19
0.04846501350402832,0.08,-0.23,0.08,0.25
0.058630943298339844,-0.1,0.05,0.22,0.24
0.06862401962280273,-0.07,0.16,0.07,0.18
0.0787200927734375,0.14,0.11,-0.08,0.19
0.08877086639404297,0.18,0.09,0.06,0.21
0.09945392608642578,0.06,0.08,0.06,0.11
0.10919499397277832,-0.1,0.11,-0.06,0.16
0.11925005912780762,-0.15,0.16,-0.05,0.22
0.14365911483764648,-0.08,0.16,-0.03,0.18
0.1447758674621582,-0.01,0.06,-0.02,0.06
0.14895105361938477,0.02,0.02,0.03,0.04
0.16005206108093262,-0.01,0.06,0.05,0.07
0.16898202896118164,-0.04,0.06,-0.01,0.07
0.17993903160095215,-0.06,0.03,-0.02,0.06
0.1894550323486328,-0.07,0.0,-0.01,0.07
0.19978713989257812,-0.08,-0.05,-0.03,0.09
0.20928096771240234,-0.16,-0.05,-0.04,0.17
0.22054386138916016,-0.2,-0.05,-0.03,0.2
0.24471712112426758,-0.19,-0.07,-0.06,0.21
0.24587297439575195,-0.18,-0.09,-0.07,0.21
0.24905014038085938,-0.16,-0.08,-0.04,0.18
0.2596168518066406,-0.17,-0.08,-0.06,0.19
0.26915693283081055,-0.22,-0.11,-0.11,0.26
0.2799110412597656,-0.29,-0.11,-0.14,0.34
0.2896308898925781,-0.34,-0.1,-0.14,0.38
0.2999889850616455,-0.35,-0.11,-0.16,0.4
0.3096580505371094,-0.36,-0.11,-0.22,0.43
0.3209538459777832,-0.34,-0.18,-0.22,0.44
0.3444638252258301,-0.35,-0.11,-0.28,0.46
0.3456599712371826,-0.3,0.08,-0.2,0.36
0.3492751121520996,-0.27,0.16,-0.13,0.33
0.36037492752075195,-0.19,0.2,-0.13,0.3
0.36939287185668945,0.01,0.26,-0.01,0.26
0.3801431655883789,0.25,0.28,0.15,0.4
0.38993000984191895,0.4,0.25,0.22,0.52
0.3997020721435547,0.39,0.22,0.21,0.49
0.4100179672241211,0.29,0.18,0.15,0.37
0.4216461181640625,0.15,0.11,0.05,0.19
0.44411516189575195,-0.07,-0.06,-0.09,0.12
0.4453158378601074,-0.29,-0.1,-0.31,0.43
0.44956207275390625,-0.38,-0.04,-0.4,0.55
0.45963287353515625,-0.48,-0.04,-0.48,0.68
0.4705390930175781,-0.64,-0.13,-0.63,0.9
0.47962498664855957,-0.73,-0.16,-0.68,1.01
0.4896731376647949,-0.7,-0.06,-0.6,0.92
0.5002820491790771,-0.52,0.06,-0.38,0.64
0.5097098350524902,-0.27,0.14,-0.22,0.37
0.5216798782348633,-0.12,0.12,-0.19,0.25
0.5433259010314941,0.0,0.02,-0.11,0.11
0.5441989898681641,0.08,-0.11,0.02,0.13
0.5500919818878174,0.01,-0.22,0.07,0.23
0.560359001159668,-0.16,-0.31,-0.09,0.36
0.5710170269012451,-0.39,-0.33,-0.34,0.61
0.5807960033416748,-0.56,-0.32,-0.46,0.79
0.5908620357513428,-0.7,-0.31,-0.66,1.01
0.6005170345306396,-0.55,-0.24,-0.59,0.84
0.6106700897216797,-0.56,-0.14,-0.11,0.58
0.6220190525054932,-0.7,0.32,-0.08,0.77
0.644050121307373,-0.24,0.55,0.15,0.61
0.644927978515625,0.52,0.55,0.56,0.94
0.6498479843139648,1.23,0.66,1.08,1.76
0.660071849822998,1.75,0.78,1.49,2.42
0.6713769435882568,2.28,0.79,1.69,2.94
0.680063009262085,2.52,0.69,1.64,3.08
0.6906609535217285,2.38,0.64,1.36,2.81
0.7003870010375977,2.02,0.62,1.02,2.34
0.7106318473815918,1.54,0.55,0.72,1.78
0.7219901084899902,0.75,0.34,0.26,0.86
0.7440750598907471,-0.18,0.03,-0.29,0.34
0.7449789047241211,-1.0,-0.22,-0.66,1.21
0.7503499984741211,-1.53,-0.34,-0.86,1.78
0.7602100372314453,-1.79,-0.37,-0.92,2.04
0.7718789577484131,-1.69,-0.39,-0.83,1.92
0.7801740169525146,-1.29,-0.37,-0.76,1.54
0.7902030944824219,-0.83,-0.28,-0.72,1.13
0.8009059429168701,-0.54,-0.15,-0.68,0.88
0.8108391761779785,-0.42,-0.09,-0.6,0.73
0.8230738639831543,-0.46,-0.08,-0.58,0.74
0.844019889831543,-0.45,-0.07,-0.43,0.62
0.845221996307373,-0.5,0.01,-0.3,0.58
0.8503830432891846,-0.45,0.0,-0.14,0.47
0.8609969615936279,-0.22,-0.05,0.03,0.22
0.872154951095581,0.09,-0.02,0.29,0.3
0.8812260627746582,0.39,0.08,0.39,0.55
0.8906259536743164,0.53,0.18,0.37,0.67
0.9003829956054688,0.56,0.26,0.32,0.69
0.9110908508300781,0.58,0.31,0.26,0.7
0.9207859039306641,0.61,0.31,0.3,0.74
0.9435491561889648,0.59,0.28,0.4,0.76
0.9447178840637207,0.5,0.2,0.44,0.69
0.9505748748779297,0.33,0.09,0.42,0.54
0.9612350463867188,0.19,0.01,0.33,0.38
0.9706439971923828,0.11,0.02,0.3,0.32
0.9823329448699951,0.08,0.06,0.26,0.27
0.9910039901733398,0.07,0.06,0.14,0.16
1.001345157623291,0.05,0.07,-0.01,0.08
1.0111949443817139,0.05,0.08,-0.08,0.12
1.021256923675537,0.07,0.08,-0.14,0.17
1.0452251434326172,0.05,0.09,-0.16,0.19
1.046422004699707,-0.04,0.06,-0.21,0.22
1.0507678985595703,-0.18,-0.04,-0.25,0.31
1.0608570575714111,-0.36,-0.12,-0.23,0.44
1.0722730159759521,-0.49,-0.15,-0.18,0.54
1.0814571380615234,-0.46,-0.11,-0.07,0.47
1.091196060180664,-0.29,-0.09,0.08,0.31
1.1017608642578125,-0.13,-0.1,0.23,0.28
1.1116199493408203,0.0,-0.12,0.28,0.3
1.1214008331298828,0.28,-0.15,-0.04,0.32
1.1470739841461182,0.66,-0.29,0.37,0.81
1.1482748985290527,0.28,-0.16,0.15,0.35
1.1513428688049316,-0.19,0.23,0.09,0.31
1.1612310409545898,-0.41,0.36,0.01,0.54
1.1712708473205566,-0.37,0.2,-0.18,0.45
1.1810870170593262,-0.2,0.01,-0.29,0.35
1.1912250518798828,-0.12,0.03,-0.04,0.13
1.2017600536346436,-0.12,0.21,0.21,0.32
1.2116608619689941,0.09,0.27,0.32,0.42
1.221647024154663,0.43,0.23,0.32,0.58
1.2463269233703613,0.65,0.24,0.28,0.74
1.2475061416625977,0.78,0.29,0.22,0.86
1.2512121200561523,0.84,0.31,0.16,0.9
1.2618520259857178,0.72,0.34,0.1,0.8
1.2729449272155762,0.44,0.35,-0.03,0.56
1.2822251319885254,0.17,0.32,-0.06,0.36
1.2923200130462646,0.0,0.26,0.04,0.26
1.3020100593566895,-0.02,0.15,0.24,0.28
1.3121299743652344,0.12,-0.02,0.43,0.44
1.3217289447784424,0.26,-0.18,0.5,0.59
1.3458008766174316,0.29,-0.25,0.47,0.6
1.3469958305358887,0.25,-0.22,0.41,0.52
1.3513779640197754,0.17,-0.24,0.34,0.44
1.3615059852600098,-0.02,-0.31,0.22,0.38
1.3717000484466553,-0.24,-0.36,0.16,0.46
1.3824360370635986,-0.41,-0.41,0.11,0.59
1.3927860260009766,-0.46,-0.45,0.06,0.64
1.4020700454711914,-0.45,-0.4,0.08,0.6
1.4124469757080078,-0.41,-0.27,0.04,0.49
1.4225120544433594,-0.36,-0.15,-0.01,0.39
1.445986032485962,-0.22,-0.06,-0.03,0.23
1.4471640586853027,-0.08,-0.01,-0.06,0.1
1.4515938758850098,0.0,0.04,-0.08,0.08
1.4616670608520508,0.01,0.13,-0.12,0.17
1.4717979431152344,-0.03,0.18,-0.16,0.24
1.4822478294372559,-0.1,0.21,-0.25,0.34
1.4919240474700928,-0.2,0.22,-0.31,0.42
1.5026569366455078,-0.26,0.19,-0.36,0.48
1.5123028755187988,-0.29,0.17,-0.37,0.49
1.521949052810669,-0.3,0.17,-0.31,0.46
1.5398190021514893,-0.28,0.14,-0.26,0.4
1.5477981567382812,-0.24,0.06,-0.2,0.31
1.551833152770996,-0.21,0.03,-0.12,0.24
1.5623221397399902,-0.19,0.05,0.01,0.19
1.5730018615722656,-0.07,0.02,0.11,0.13
1.5827088356018066,0.04,-0.05,0.19,0.2
1.592885971069336,0.12,-0.1,0.28,0.32
1.6027090549468994,0.15,-0.12,0.35,0.39
1.6127581596374512,0.15,-0.14,0.38,0.43
1.6225800514221191,0.11,-0.19,0.42,0.47
1.6395511627197266,0.06,-0.21,0.43,0.48
1.646975040435791,0.07,-0.23,0.44,0.5
1.651960849761963,0.07,-0.24,0.42,0.48
1.662168025970459,0.08,-0.23,0.38,0.45
1.672666072845459,0.05,-0.17,0.33,0.37
1.6833930015563965,-0.01,-0.1,0.28,0.29
1.6935479640960693,-0.01,-0.05,0.22,0.22
1.7026948928833008,0.02,-0.03,0.16,0.16
1.7128000259399414,0.06,-0.01,0.12,0.13
1.7225010395050049,0.09,-0.01,0.07,0.11
1.7394819259643555,0.07,-0.01,0.03,0.07
1.7470910549163818,0.02,0.03,-0.01,0.03
1.7522530555725098,-0.03,0.08,-0.07,0.11
1.7624340057373047,-0.07,0.13,-0.15,0.21
1.7724061012268066,-0.14,0.18,-0.29,0.36
1.7831058502197266,-0.18,0.16,-0.38,0.44
1.7924671173095703,-0.18,0.06,-0.37,0.41
1.803372859954834,-0.27,0.0,-0.28,0.38
1.81290602684021,-0.36,-0.02,-0.09,0.37
1.8226840496063232,-0.36,-0.06,0.09,0.37
1.8400189876556396,-0.24,-0.11,0.18,0.31
1.8477940559387207,-0.07,-0.1,0.24,0.26
1.8524861335754395,0.05,-0.08,0.22,0.23
1.8628058433532715,0.13,-0.07,0.2,0.24
1.8729438781738281,0.2,-0.07,0.2,0.29
1.8837051391601562,0.2,-0.09,0.28,0.35
1.8949460983276367,0.13,-0.15,0.31,0.36
1.9032158851623535,0.02,-0.21,0.29,0.35
1.9132471084594727,-0.12,-0.21,0.24,0.34
1.9233100414276123,-0.21,-0.15,0.21,0.33
1.9405808448791504,-0.16,-0.06,0.16,0.23
1.9482660293579102,-0.06,0.05,0.1,0.12
1.9529459476470947,0.09,0.14,0.07,0.18
1.9628570079803467,0.26,0.22,0.03,0.34
1.9730219841003418,0.36,0.27,0.0,0.45
1.983449935913086,0.37,0.34,-0.01,0.5
1.995211124420166,0.34,0.4,-0.06,0.52
2.0029640197753906,0.26,0.43,-0.14,0.52
2.013216972351074,0.17,0.43,-0.22,0.51
2.023007869720459,0.09,0.44,-0.31,0.54
2.0412001609802246,0.0,0.45,-0.4,0.6
2.04935884475708,-0.11,0.44,-0.49,0.66
2.053010940551758,-0.18,0.39,-0.55,0.69
2.0628929138183594,-0.24,0.32,-0.54,0.67
2.0731148719787598,-0.28,0.29,-0.48,0.62
2.0829579830169678,-0.26,0.24,-0.41,0.54
2.0942678451538086,-0.21,0.19,-0.38,0.47
2.104288101196289,-0.18,0.19,-0.36,0.44
2.1136999130249023,-0.19,0.21,-0.33,0.43
2.1234641075134277,-0.14,0.15,-0.22,0.3
2.1415719985961914,-0.07,0.1,-0.1,0.15
2.149446964263916,-0.04,0.07,0.04,0.09
2.1532399654388428,0.01,0.03,0.12,0.12
2.16323184967041,0.08,-0.02,0.16,0.18
2.1743719577789307,0.12,-0.02,0.2,0.23
2.183351993560791,0.11,0.01,0.21,0.23
2.1955881118774414,0.13,0.02,0.24,0.27
2.2038779258728027,0.16,-0.03,0.25,0.29
2.213947057723999,0.17,-0.06,0.28,0.33
2.2238430976867676,0.15,-0.08,0.29,0.33
2.2413721084594727,0.09,-0.1,0.29,0.31
2.249462127685547,0.04,-0.12,0.27,0.29
2.2535250186920166,0.0,-0.13,0.21,0.24
2.2635819911956787,-0.05,-0.16,0.16,0.23
2.273509979248047,-0.08,-0.15,0.14,0.22
2.2844290733337402,-0.11,-0.12,0.14,0.21
2.2949399948120117,-0.12,-0.09,0.13,0.19
2.3045759201049805,-0.07,-0.07,0.1,0.14
2.3139748573303223,-0.03,-0.07,0.07,0.1
2.3236899375915527,-0.03,-0.02,0.03,0.04
2.342379093170166,-0.04,0.04,0.02,0.06
2.3502750396728516,-0.02,0.09,0.0,0.09
2.3535959720611572,-0.01,0.12,0.0,0.12
2.3644461631774902,0.02,0.12,-0.01,0.12
2.3744750022888184,0.05,0.15,-0.02,0.15
2.383610963821411,0.04,0.19,-0.03,0.19
2.397307872772217,0.06,0.19,-0.05,0.2
2.403709888458252,0.05,0.14,-0.06,0.16
2.414185047149658,0.01,0.11,-0.06,0.12
2.4239840507507324,-0.02,0.06,-0.05,0.08
2.4421029090881348,-0.05,0.01,-0.04,0.06
2.4437079429626465,-0.1,0.01,-0.07,0.12
2.4540271759033203,-0.14,0.02,-0.06,0.15
2.4637770652770996,-0.15,0.02,-0.07,0.16
2.473968982696533,-0.11,0.01,-0.04,0.11
2.483952045440674,-0.06,0.01,-0.01,0.06
2.497462034225464,-0.03,0.02,0.01,0.03
2.504119873046875,-0.01,0.02,0.02,0.03
2.5144519805908203,-0.01,0.01,0.04,0.04
2.5245490074157715,0.0,0.02,0.06,0.06
2.5431630611419678,0.02,-0.02,0.07,0.07
2.551651954650879,0.0,-0.06,0.06,0.08
2.554165840148926,-0.06,-0.08,0.1,0.14
2.5642640590667725,-0.11,-0.12,0.09,0.18
2.5741820335388184,-0.12,-0.17,0.05,0.21
2.5845460891723633,-0.17,-0.2,-0.04,0.26
2.5946221351623535,-0.22,-0.24,-0.11,0.34
2.6044769287109375,-0.27,-0.27,-0.18,0.42
2.6148581504821777,-0.33,-0.27,-0.21,0.47
2.625235080718994,-0.38,-0.28,-0.24,0.52
2.6428260803222656,-0.44,-0.3,-0.31,0.61
2.6442818641662598,-0.53,-0.32,-0.36,0.71
2.654417037963867,-0.62,-0.36,-0.33,0.78
2.664391040802002,-0.7,-0.39,-0.24,0.83
2.6751749515533447,-0.7,-0.43,-0.14,0.83
2.685366153717041,-0.63,-0.42,-0.05,0.75
2.694632053375244,-0.6,-0.19,-0.17,0.65
2.7047300338745117,-0.47,0.15,-0.01,0.49
2.7148380279541016,-0.34,0.44,-0.01,0.55
2.7250218391418457,-0.23,0.65,-0.14,0.7
2.743472099304199,-0.15,0.85,-0.22,0.89
2.7512199878692627,-0.15,1.1,-0.38,1.17
2.7545700073242188,-0.23,1.25,-0.46,1.35
2.7646799087524414,-0.52,1.13,-0.75,1.45
2.7747280597686768,-1.07,0.77,-0.95,1.62
2.7852048873901367,-1.73,0.26,-0.83,1.93
2.7949910163879395,-2.24,-0.32,-0.75,2.38
2.8049569129943848,-2.61,-0.75,-0.34,2.73
2.8153350353240967,-2.95,-0.87,0.22,3.08
2.8251280784606934,-3.09,-0.95,1.11,3.41
2.8441710472106934,-2.77,-0.98,1.76,3.42
2.853533983230591,-1.86,-0.87,-0.36,2.08
2.855079174041748,-0.2,-0.48,-0.5,0.72
2.8648290634155273,1.54,0.4,-0.12,1.59
2.8753981590270996,2.7,1.03,-1.8,3.4
2.884842872619629,3.03,1.56,-2.91,4.48
2.895576000213623,2.59,2.34,-1.99,4.01
2.9051690101623535,2.08,2.64,-0.23,3.36
2.915431022644043,1.97,1.59,0.57,2.59
2.925191879272461,2.03,-0.14,0.8,2.18
2.944064140319824,2.0,-1.27,1.29,2.69
2.9522719383239746,1.86,-1.51,1.7,2.93
2.955008029937744,1.56,-1.18,1.52,2.47
2.9650630950927734,1.23,-0.56,1.02,1.69
2.975147008895874,1.09,-0.03,0.3,1.13
2.9855639934539795,1.02,0.16,-0.51,1.15
2.9954519271850586,0.88,0.06,-1.27,1.54
3.005396842956543,0.81,-0.26,-1.4,1.63
3.01560115814209,0.53,-0.79,-0.84,1.26
3.025251865386963,0.15,-1.35,-0.53,1.45
3.0433919429779053,0.6,-1.66,-0.31,1.79
3.0450549125671387,2.27,-1.72,0.07,2.84
3.055907964706421,3.82,-2.03,0.48,4.35
3.065126895904541,4.2,-1.94,0.81,4.69
3.076289176940918,3.37,-1.08,0.67,3.6
3.085300922393799,1.59,-0.59,-0.43,1.74
3.0960819721221924,-0.57,-0.43,-1.54,1.69
3.1057190895080566,-1.96,-0.14,-2.16,2.92
3.1158838272094727,-2.38,-0.01,-2.26,3.28
3.125854969024658,-2.15,-0.03,-1.75,2.77
3.1424951553344727,-1.65,-0.25,-0.7,1.8
3.145315170288086,-1.11,-0.65,-0.04,1.28
3.156054973602295,-0.93,-0.87,-0.23,1.29
3.165508985519409,-1.66,-0.62,-0.77,1.93
3.175583839416504,-3.32,0.27,-0.08,3.33
3.1855111122131348,-5.08,2.8,3.56,6.8
3.1955008506774902,-5.34,5.44,8.52,11.43
3.2066190242767334,-2.84,5.29,9.35,11.11
3.216066837310791,2.23,1.3,5.27,5.86
3.226174831390381,6.8,-1.92,2.18,7.39
3.2431440353393555,8.09,-1.15,0.5,8.18
3.245607852935791,4.47,-0.7,-1.8,4.86
3.2564330101013184,0.7,-0.32,-2.23,2.35
3.2656331062316895,-1.85,-1.08,-2.17,3.04
3.2768068313598633,-2.98,-1.93,-2.82,4.53
3.2865569591522217,-2.83,-1.97,-2.63,4.33
3.2960638999938965,-2.56,-0.33,-0.75,2.68
3.306182861328125,-2.35,1.62,1.04,3.03
3.3163490295410156,-1.43,2.45,1.52,3.21
3.3264870643615723,0.56,1.51,0.65,1.73
3.3447518348693848,2.53,-0.07,0.08,2.53
3.347234010696411,3.14,-0.79,1.03,3.39
3.355937957763672,2.06,-1.01,2.14,3.13
3.3657469749450684,0.92,-0.87,2.61,2.9
3.376039981842041,0.14,-0.74,2.03,2.16
3.3858871459960938,-0.44,-0.85,0.71,1.19
3.3968639373779297,-1.66,-0.33,-0.18,1.7
3.4064879417419434,-2.59,0.44,-0.55,2.68
3.4165539741516113,-1.78,0.77,-0.85,2.11
3.426305055618286,-0.65,0.46,-0.76,1.1
3.4445581436157227,-0.12,0.08,-0.19,0.23
3.446017026901245,0.1,0.31,0.47,0.57
3.45694899559021,-0.14,0.15,-0.4,0.44
3.4660120010375977,-0.51,0.26,-0.34,0.66
3.476701021194458,-0.6,0.24,-0.3,0.71
3.4861299991607666,-0.59,0.07,-0.4,0.71
3.4969170093536377,-0.48,0.05,-0.35,0.59
3.5060858726501465,-0.12,0.21,-0.34,0.41
3.5182361602783203,0.09,0.46,-0.33,0.57
3.527143955230713,0.05,0.39,-0.28,0.48
3.5437450408935547,-0.15,0.14,-0.13,0.24
3.546238899230957,-0.3,0.04,-0.05,0.3
3.5569510459899902,-0.23,0.05,-0.11,0.25
3.567349910736084,-0.21,0.2,-0.22,0.36
3.5764951705932617,-0.16,0.28,-0.31,0.44
3.5863218307495117,-0.12,0.25,-0.41,0.49
3.5970969200134277,-0.16,0.33,-0.39,0.53
3.606688976287842,-0.24,0.28,-0.3,0.47
3.6181390285491943,-0.28,0.27,-0.31,0.49
3.626641035079956,-0.24,0.7,-0.25,0.78
3.6442790031433105,-0.24,0.69,-0.38,0.82
3.6464438438415527,-0.38,0.19,-0.68,0.8
3.6572608947753906,-0.43,0.17,-0.53,0.7
3.6676878929138184,-0.43,0.21,-0.17,0.5
3.6772589683532715,-0.24,0.06,0.05,0.25
3.687124013900757,0.11,-0.03,0.22,0.24
3.6968679428100586,0.39,-0.08,0.29,0.49
3.707131862640381,0.45,-0.14,0.02,0.47
3.7191381454467773,0.15,-0.09,-0.11,0.2
3.726839065551758,-0.08,0.35,0.05,0.36
3.7446961402893066,-0.19,0.41,-0.09,0.46
3.746588945388794,-0.22,0.14,-0.31,0.4
3.7574191093444824,-0.17,0.17,-0.23,0.33
3.7681379318237305,-0.1,0.17,-0.33,0.38
3.7769720554351807,-0.07,0.09,-0.45,0.46
3.7867319583892822,0.15,0.21,-0.36,0.44
3.797584056854248,0.5,0.04,-0.44,0.66
3.807283878326416,0.86,-0.44,-0.35,1.02
3.8195228576660156,1.07,-0.56,0.18,1.22
3.8271470069885254,1.06,-0.26,0.58,1.23
3.8446388244628906,0.88,-0.17,0.55,1.05
3.846842050552368,0.59,-0.24,0.47,0.79
3.8577330112457275,0.4,-0.13,0.45,0.61
3.868530035018921,0.33,-0.3,0.67,0.8
3.8781161308288574,0.43,-0.54,0.84,1.08
3.8873281478881836,0.39,-0.47,0.86,1.05
3.8979380130767822,0.24,-0.09,0.56,0.61
3.9073729515075684,-0.32,-0.01,0.04,0.32
3.9199249744415283,-1.39,-0.02,-0.51,1.48
3.9272561073303223,-1.72,0.45,-0.14,1.78
3.9458210468292236,-1.1,0.76,-0.23,1.35
3.9482169151306152,-0.31,0.94,-1.2,1.55
3.9578590393066406,-0.11,1.22,-1.22,1.72
3.9690940380096436,-0.61,0.99,-1.71,2.06
3.9784209728240967,-1.05,0.92,-1.81,2.28
3.9871459007263184,-0.96,1.15,-1.32,1.99
3.9982218742370605,-0.39,0.85,-1.11,1.45
4.00767183303833,0.07,0.36,-0.77,0.85
4.020437955856323,0.22,0.14,-0.6,0.65
4.0276031494140625,0.07,0.06,0.03,0.09
4.044793128967285,-0.12,-0.28,0.6,0.67
4.047216892242432,-0.02,-0.58,0.95,1.11
4.057960033416748,0.28,-0.78,1.47,1.68
4.067353010177612,0.65,-0.97,1.82,2.16
4.078240871429443,0.92,-0.95,1.68,2.13
4.0879740715026855,0.94,-0.81,1.55,1.98
4.09791898727417,0.86,-0.63,1.38,1.74
4.107944011688232,0.67,-0.22,1.25,1.43
4.118960857391357,0.3,0.05,1.54,1.56
4.127740859985352,-0.22,-0.57,0.7,0.92
4.1455090045928955,-0.29,-0.62,-0.13,0.69
4.1475300788879395,0.05,0.24,-0.49,0.54
4.158339023590088,0.34,0.75,-0.69,1.07
4.169633865356445,0.43,0.54,-0.64,0.94
4.178812026977539,0.28,0.29,-0.08,0.41
4.187767028808594,0.12,0.03,0.26,0.28
4.198683977127075,0.36,-0.06,0.17,0.4
4.2084479331970215,0.82,0.2,0.3,0.89
4.220021963119507,1.02,0.32,0.21,1.08
4.228028059005737,0.95,0.34,0.28,1.04
4.245719909667969,0.91,0.44,0.52,1.13
4.247775077819824,0.96,0.53,0.43,1.17
4.258507013320923,1.09,0.81,0.35,1.4
4.26988410949707,1.49,1.65,2.74,3.52
4.278051853179932,1.47,-0.22,0.25,1.5
4.287929058074951,1.03,-0.94,0.7,1.56
4.297907829284668,0.16,-0.36,1.07,1.14
4.308819055557251,-0.32,0.16,-0.18,0.4
4.31841516494751,-0.42,0.66,-1.72,1.88
4.328421115875244,-0.62,1.12,-2.06,2.42
4.346258163452148,-0.82,1.26,-1.81,2.35
4.3479790687561035,-0.84,1.19,-1.23,1.9
4.358245849609375,-0.52,1.21,-0.77,1.52
4.368052959442139,0.11,1.52,-0.37,1.56
4.378212928771973,0.88,1.86,0.13,2.06
4.388535022735596,1.56,1.92,0.22,2.48
4.398324966430664,1.95,1.72,0.08,2.6
4.4086010456085205,1.97,1.55,0.09,2.5
4.418406009674072,1.8,1.57,0.25,2.4
4.428370952606201,1.54,1.65,0.41,2.29
4.445794105529785,1.42,1.78,0.53,2.33
4.4481048583984375,1.37,2.0,0.72,2.52
4.458945989608765,1.57,2.47,0.7,3.0
4.468283176422119,2.03,3.47,-0.72,4.08
4.478458881378174,2.68,5.43,-1.48,6.23
4.489256858825684,3.75,7.19,1.86,8.31
4.499089956283569,5.67,7.61,1.08,9.55
4.508811950683594,7.62,7.11,-1.34,10.5
4.518782138824463,9.15,6.9,-1.46,11.55
4.528655052185059,9.96,7.5,-2.83,12.78
4.546443939208984,10.43,8.39,-3.31,13.78
4.548375129699707,11.08,8.44,-3.37,14.33
4.559195041656494,11.09,7.43,-3.46,13.79
4.569458961486816,9.56,6.6,-3.43,12.11
4.579687118530273,4.89,5.44,0.77,7.35
4.589884042739868,1.56,5.31,5.06,7.49
4.598918914794922,2.06,5.9,4.91,7.94
4.609273910522461,3.77,6.31,2.99,7.93
4.619113922119141,5.43,7.15,2.22,9.24
4.628996849060059,6.97,7.36,1.83,10.3
4.646679878234863,7.2,5.75,0.16,9.21
4.6485819816589355,8.34,6.47,2.5,10.84
4.660015106201172,8.65,5.85,3.71,11.08
4.669650077819824,8.67,4.03,-0.9,9.6
4.679517984390259,8.53,3.31,-1.27,9.23
4.688791036605835,7.73,4.12,0.56,8.77
4.700186014175415,6.51,3.0,1.92,7.42
4.709158897399902,6.05,-0.93,1.06,6.21
4.719089984893799,6.37,-5.28,-0.65,8.29
4.729400157928467,7.27,-8.01,-0.23,10.81
4.746667861938477,8.25,-8.32,0.05,11.71
4.748800039291382,9.02,-6.71,-0.05,11.24
4.760339021682739,8.68,-4.27,1.09,9.73
4.768901824951172,7.35,-2.51,2.23,8.08
4.7796311378479,6.06,-2.01,2.19,6.74
4.789133071899414,5.42,-2.37,0.7,5.95
4.79964804649353,5.79,-1.89,-1.33,6.23
4.809482097625732,6.72,0.57,-1.01,6.81
4.819302082061768,6.63,1.96,1.58,7.09
4.829608917236328,6.4,-0.06,2.34,6.81
4.84755802154541,5.74,-2.64,2.19,6.68
4.849112033843994,4.81,-2.98,3.0,6.4
4.861016035079956,3.69,-1.88,3.88,5.67
4.869143962860107,2.53,-0.86,3.32,4.26
4.879354953765869,1.92,0.19,1.87,2.68
4.889178037643433,2.11,1.3,0.31,2.49
4.900166034698486,2.6,1.91,-0.41,3.25
4.909627914428711,2.39,1.6,-0.23,2.88
4.919530868530273,1.3,1.31,0.54,1.92
4.929808139801025,-0.58,1.85,1.15,2.25
4.948407173156738,-2.67,3.36,1.51,4.54
4.950789928436279,-4.48,5.29,1.31,7.05
4.961371898651123,-6.33,6.99,-0.48,9.44
4.969766139984131,-8.99,7.99,-2.65,12.31
4.979608058929443,-11.2,7.68,0.51,13.58
4.991431951522827,-11.71,5.98,0.73,13.16
4.999823093414307,-12.14,4.23,-0.19,12.85
5.009943962097168,-12.4,4.26,-1.32,13.17
5.020028114318848,-13.34,5.37,-0.68,14.39
5.030045986175537,-15.46,6.47,0.55,16.76
5.048348903656006,-17.15,7.02,1.67,18.6
5.0505900382995605,-17.81,6.8,2.41,19.21
5.061326026916504,-18.91,5.55,1.51,19.76
5.070673942565918,-21.69,3.41,-0.78,21.97
5.080250024795532,-25.83,0.86,-3.31,26.05
5.09221887588501,-28.06,-1.05,-5.19,28.55
5.100275039672852,-25.44,-0.07,-6.24,26.19
5.11024284362793,-21.61,8.06,-4.94,23.58
5.120489120483398,-14.76,14.81,-7.09,22.07
5.130231857299805,-2.81,11.48,-6.23,13.36
5.147377014160156,9.66,6.33,-3.41,12.04
5.149969100952148,21.22,-1.38,-5.53,21.97
5.161840915679932,20.0,-8.63,-7.43,23.01
5.170927047729492,6.81,-6.21,-0.54,9.23
5.180059909820557,-3.88,1.99,8.88,9.89
5.190876007080078,-14.63,10.23,11.21,21.07
5.200721025466919,-16.14,7.49,5.45,18.6
5.210271835327148,-10.56,0.87,-3.45,11.14
5.220641136169434,-6.01,-1.11,-11.18,12.74
5.231203079223633,-2.24,-3.24,-2.71,4.78
5.248700141906738,-0.01,-5.15,-2.55,5.74
5.2499871253967285,-0.59,-4.63,-0.66,4.71
5.262408971786499,0.18,3.4,1.55,3.74
5.2699809074401855,3.37,7.43,5.01,9.57
5.280345916748047,6.75,0.47,5.36,8.63
5.2913031578063965,6.16,-3.17,1.88,7.17
5.3012471199035645,4.33,-2.29,1.39,5.09
5.310707092285156,0.02,-2.45,0.49,2.49
5.320646047592163,-4.36,-1.23,-0.83,4.6
5.330549955368042,-5.78,1.91,-1.0,6.16
5.349020004272461,-3.88,2.66,-0.74,4.76
5.3512139320373535,-0.66,0.19,-0.97,1.18
5.362437009811401,1.91,-1.32,0.48,2.37
5.371212005615234,3.67,-0.94,3.25,4.99
5.380450963973999,4.02,-0.28,2.79,4.9
5.391664028167725,2.84,0.46,0.36,2.89
5.4004199504852295,1.24,0.64,0.1,1.39
5.4104390144348145,0.06,0.0,0.56,0.56
5.422050952911377,-0.88,-0.52,0.61,1.19
5.430351972579956,-1.3,-0.24,0.26,1.34
5.4496331214904785,-1.05,0.44,-0.19,1.15
5.451848983764648,-0.44,0.77,-0.63,1.08
5.463125944137573,0.16,0.65,-0.44,0.8
5.470921993255615,0.65,0.33,0.17,0.74
5.480705976486206,0.89,0.11,0.41,0.98
5.491991996765137,0.54,0.2,0.17,0.6
5.501474857330322,-0.06,0.44,-0.16,0.47
5.510870933532715,-0.45,0.53,-0.26,0.74
5.520704030990601,-0.53,0.49,-0.01,0.72
5.531041145324707,-0.14,0.52,0.23,0.58
5.549633979797363,0.42,0.73,0.27,0.88
5.551823139190674,0.78,1.0,0.1,1.27
5.563514947891235,0.77,1.26,0.19,1.48
5.570688009262085,0.54,1.36,0.33,1.5
5.580917835235596,0.48,1.23,-0.01,1.32
5.592493057250977,0.79,1.44,-0.43,1.69
5.6009368896484375,1.23,1.97,-0.59,2.39
5.611636161804199,1.65,2.37,-0.67,2.96
5.620996952056885,2.0,2.54,-0.93,3.36
5.631610870361328,2.21,2.59,-1.29,3.64
5.650503158569336,2.31,2.99,-1.45,4.04
5.652646064758301,2.43,3.61,-1.32,4.54
5.663938999176025,2.94,4.38,-0.92,5.35
5.671447038650513,3.83,5.52,-1.06,6.8
5.681136131286621,4.72,7.29,-1.45,8.8
5.692791938781738,5.47,9.27,0.46,10.77
5.7011308670043945,7.02,10.91,2.18,13.15
5.7111029624938965,9.65,11.55,2.14,15.2
5.721857070922852,12.5,11.75,1.83,17.25
5.731066942214966,13.92,11.69,1.47,18.23
5.754318952560425,11.61,11.88,3.26,16.92
5.755209922790527,6.54,12.18,7.24,15.6
5.761047840118408,3.85,12.01,9.01,15.49
5.772233009338379,6.68,9.87,5.84,13.27
5.782305002212524,10.24,5.89,3.88,12.43
5.79310417175293,11.24,3.98,4.41,12.71
5.802245140075684,10.13,3.32,1.35,10.74
5.811634063720703,7.38,3.39,-1.29,8.22
5.82273006439209,2.3,5.96,2.05,6.7
5.831765174865723,-3.82,7.19,4.48,9.29
5.850854873657227,-4.01,2.82,1.51,5.12
5.853034019470215,1.77,-3.05,4.03,5.35
5.864951133728027,7.57,-7.09,4.41,11.27
5.871332168579102,11.83,-9.22,2.62,15.22
5.881515979766846,14.83,-10.07,1.68,18.0
5.893458843231201,15.5,-9.2,1.48,18.08
5.902259826660156,14.23,-7.87,2.22,16.41
5.911694049835205,13.42,-6.67,2.29,15.16
5.921767950057983,13.69,-6.32,1.86,15.19
5.932579040527344,14.67,-6.16,1.02,15.94
5.951397895812988,15.88,-5.43,0.26,16.78
5.953685998916626,15.62,-4.25,2.03,16.31
5.9654459953308105,13.52,-3.82,4.65,14.79
5.971527099609375,10.07,-3.83,4.69,11.75
5.9827399253845215,7.42,-2.67,4.2,8.93
5.991464138031006,5.45,-0.94,4.37,7.04
6.00277304649353,2.65,0.49,5.22,5.87
6.0120530128479,1.52,1.39,3.11,3.73
6.021931171417236,1.21,4.0,1.94,4.6
6.032084941864014,0.35,6.1,3.41,6.99
6.050489902496338,-0.78,5.5,5.11,7.54
6.052675008773804,-1.44,4.08,6.59,7.88
6.0656819343566895,-1.0,4.35,7.88,9.05
6.071724891662598,0.19,5.63,8.44,10.14
6.081918954849243,1.2,6.89,8.63,11.1
6.092412948608398,1.33,7.95,9.28,12.29
6.1030168533325195,0.78,8.57,10.88,13.87
6.1123270988464355,0.0,8.96,12.5,15.37
6.122097969055176,-0.84,9.25,13.48,16.37
6.132649898529053,-1.75,9.81,13.66,16.9
6.157461166381836,-2.92,10.52,13.22,17.14
6.15864896774292,-4.47,10.99,12.22,17.03
6.1621270179748535,-6.57,11.04,10.41,16.53
6.172404050827026,-9.73,10.78,8.09,16.62
6.182585000991821,-12.95,10.14,4.92,17.16
6.19196891784668,-14.93,8.14,-1.82,17.1
6.20317006111145,-15.97,5.24,-4.15,17.31
6.212593078613281,-18.07,2.3,-1.36,18.26
6.222416877746582,-21.22,0.18,4.12,21.61
6.232802867889404,-23.3,0.28,5.85,24.02
6.252099990844727,-21.74,2.23,3.85,22.19
6.254330158233643,-19.87,3.61,-2.69,20.37
6.266842842102051,-20.17,3.18,-5.59,21.17
6.272179126739502,-21.63,0.96,-4.36,22.08
6.282464027404785,-23.52,-0.75,-3.2,23.74
6.292474031448364,-23.03,0.85,-3.96,23.38
6.303130149841309,-19.25,3.19,-4.74,20.07
6.312891960144043,-14.05,3.32,-4.61,15.15
6.322777986526489,-5.34,5.6,-4.61,9.0
6.332998991012573,6.88,7.58,-3.95,10.97
6.353870868682861,21.21,5.84,-0.99,22.02
6.35505485534668,26.16,2.94,-2.37,26.43
6.367525100708008,13.55,1.98,-0.05,13.69
6.372382164001465,-1.31,3.48,5.68,6.78
6.382565975189209,-10.61,7.81,5.16,14.14
6.392914056777954,-20.25,8.13,-3.58,22.11
6.403292179107666,-24.34,-1.93,3.85,24.71
6.412899017333984,-13.57,-8.87,3.45,16.57
6.42295503616333,0.87,-6.61,1.23,6.77
6.43300199508667,6.66,-3.64,0.54,7.6
6.456693172454834,7.61,0.6,0.62,7.65
6.457864046096802,5.87,3.74,0.74,6.99
6.463057041168213,1.84,3.12,0.08,3.62
6.47271203994751,-1.42,0.25,0.3,1.47
6.48302698135376,-1.78,-1.26,0.41,2.21
6.493674993515015,-2.26,-1.78,-1.09,3.07
6.503738880157471,-2.52,-1.08,1.21,2.99
6.513214111328125,-1.73,1.29,1.37,2.55
6.523342132568359,0.32,0.26,1.29,1.35
6.533506870269775,2.14,-1.07,1.54,2.84
6.55394983291626,2.06,-0.26,1.1,2.34
6.555119037628174,0.64,0.0,0.18,0.66
6.568089962005615,-0.47,-0.05,-0.18,0.5
6.572865962982178,-0.98,0.63,-0.27,1.19
6.582901954650879,-0.57,0.74,-0.75,1.19
6.5939531326293945,0.21,0.64,-1.14,1.32
6.603696823120117,0.33,0.66,-0.73,1.03
6.614768028259277,0.21,0.35,-0.24,0.47
6.623337984085083,0.14,0.06,-0.12,0.19
6.633394002914429,0.1,0.08,0.09,0.15
6.658573150634766,0.18,0.19,0.49,0.55
6.659729957580566,0.28,0.2,0.56,0.65
6.663027048110962,0.33,0.08,0.4,0.52
6.674077033996582,0.13,0.12,0.05,0.18
6.683071136474609,-0.2,0.12,-0.3,0.38
6.694257974624634,-0.25,0.3,-0.56,0.68
6.704111099243164,-0.29,0.66,-0.6,0.93
6.715327978134155,-0.35,0.83,-0.37,0.97
6.723825931549072,0.01,0.94,-0.42,1.02
6.733695983886719,0.28,1.06,-0.16,1.1
6.758750915527344,0.29,0.89,-0.03,0.93
6.759866952896118,0.29,0.82,0.22,0.89
6.763382911682129,0.42,0.94,0.32,1.07
6.7734270095825195,0.71,1.29,0.41,1.52
6.783390998840332,1.13,1.7,0.44,2.08
6.79446005821228,1.64,1.88,0.29,2.51
6.804764032363892,1.8,1.8,-0.38,2.57
6.815951824188232,1.64,1.73,-1.44,2.78
6.823678970336914,1.12,2.03,-2.17,3.17
6.833847999572754,0.81,2.76,-1.97,3.48
6.8579230308532715,1.3,3.48,-0.87,3.81
6.859023094177246,2.67,3.94,0.22,4.76
6.864604949951172,4.3,4.44,1.05,6.26
6.8745410442352295,5.38,5.14,1.41,7.57
6.88358211517334,5.76,6.6,1.2,8.84
6.894016981124878,6.0,8.65,3.26,11.02
6.904244899749756,7.63,9.94,4.9,13.45
6.916484832763672,10.28,10.01,3.4,14.74
6.9238691329956055,12.26,9.64,3.39,15.96
6.934165000915527,13.79,9.42,2.74,16.92
6.957720041275024,13.62,8.09,2.92,16.1
6.958840847015381,11.14,5.1,7.43,14.32
6.964943885803223,9.29,2.7,4.42,10.63
6.974781036376953,4.06,5.46,6.17,9.18
6.983710050582886,1.07,7.7,10.61,13.15
6.994765043258667,3.24,5.56,8.56,10.7
7.00465202331543,5.24,3.83,7.54,9.94
7.016839027404785,4.29,6.33,7.1,10.43
7.024258136749268,0.46,9.32,6.08,11.13
7.034495830535889,-2.9,8.31,3.01,9.3
7.0594470500946045,-2.58,4.81,3.21,6.33
7.06063985824585,1.74,2.0,1.73,3.16
7.0653581619262695,7.18,0.44,2.95,7.77
7.074118137359619,13.6,-1.8,1.86,13.84
7.084176063537598,19.22,-4.41,0.79,19.73
7.094018936157227,20.51,-5.53,1.72,21.31
7.105252981185913,17.89,-5.33,4.44,19.18
7.117485046386719,14.8,-4.54,7.22,17.08
7.124531030654907,12.63,-3.78,7.49,15.16
7.134678840637207,11.0,-3.17,5.79,12.82
7.159829139709473,9.95,-2.35,3.29,10.74
7.161000967025757,9.19,-1.9,2.36,9.67
7.165791034698486,8.33,-2.15,3.52,9.29
7.174190044403076,7.43,-2.81,3.93,8.86
7.184844017028809,6.51,-3.52,4.0,8.41
7.19415283203125,5.67,-3.32,3.9,7.64
7.20537805557251,5.17,-1.77,3.42,6.44
7.217587947845459,4.94,0.5,3.38,6.0
7.224985122680664,4.65,2.32,3.93,6.51
7.234835147857666,3.91,3.24,4.02,6.47
7.26013708114624,2.67,3.81,3.58,5.87
7.2613139152526855,1.11,4.49,2.73,5.37
7.266312122344971,-0.58,5.12,1.63,5.4
7.274451017379761,-2.27,5.52,0.91,6.03
7.284523963928223,-3.65,5.86,0.8,6.94
7.295194149017334,-4.32,6.41,0.79,7.77
7.304553031921387,-4.2,7.07,0.67,8.25
7.318711042404175,-3.41,7.61,1.29,8.43
7.325107097625732,-2.62,8.29,3.0,9.19
7.334928035736084,-2.38,9.25,4.68,10.63
7.361109972000122,-3.21,10.55,5.63,12.38
7.362307071685791,-5.74,11.79,5.33,14.15
7.366657018661499,-9.83,12.81,1.22,16.19
7.375293016433716,-14.83,12.71,-2.22,19.65
7.385184049606323,-20.33,10.07,-1.89,22.76
7.395074844360352,-24.3,4.51,-0.1,24.71
7.405181884765625,-25.99,-0.22,2.69,26.12
7.415665149688721,-27.28,-0.89,4.34,27.63
7.425189971923828,-28.26,0.95,2.97,28.43
7.435817003250122,-28.01,1.72,1.58,28.1
7.458492994308472,-26.52,0.47,1.31,26.55
7.459391117095947,-24.14,-1.26,0.06,24.17
7.466734886169434,-20.82,-1.95,-4.49,21.38
7.474985122680664,-14.57,6.29,-10.71,19.14
7.4849138259887695,-8.36,14.77,-8.41,18.94
7.495163917541504,-2.64,14.49,-6.24,15.99
7.505772113800049,5.52,8.55,1.84,10.34
7.515282154083252,10.46,0.51,6.29,12.21
7.525365829467773,6.57,-1.08,-0.96,6.72
7.53526496887207,-1.15,3.02,0.96,3.37
7.559063911437988,-7.0,4.25,2.12,8.45
7.559936046600342,-9.22,-0.17,3.1,9.72
7.565157890319824,-7.03,-4.61,1.78,8.59
7.57525110244751,-3.43,-4.95,0.52,6.04
7.585150957107544,-1.74,-3.43,-0.69,3.9
7.595552921295166,-1.62,-0.32,-2.75,3.2
7.6051411628723145,-1.11,4.49,-3.64,5.88
7.615802049636841,1.46,5.95,-1.3,6.26
7.6259541511535645,4.77,0.33,3.29,5.8
7.635644912719727,4.61,-3.54,2.7,6.4
7.663347005844116,1.74,-1.65,0.42,2.43
7.66452693939209,-2.16,0.1,-0.01,2.16
7.667572975158691,-4.17,0.48,0.06,4.19
7.6764421463012695,-2.33,0.4,1.21,2.65
7.686245918273926,0.57,-0.38,1.19,1.37
7.695811986923218,1.82,-0.42,0.01,1.86
7.706207036972046,1.36,0.51,-0.25,1.47
7.715683937072754,-0.02,0.65,-0.03,0.65
7.725594997406006,-0.85,0.42,0.1,0.95
7.7361249923706055,-0.9,0.35,0.1,0.97
7.759614944458008,-0.38,0.38,-0.03,0.53
7.760758876800537,0.19,0.62,0.23,0.68
7.765696048736572,0.52,0.64,0.43,0.93
7.775730133056641,0.54,0.43,0.47,0.83
7.786765098571777,0.22,0.27,0.33,0.47
7.7965919971466064,-0.13,0.59,0.41,0.73
7.8060150146484375,-0.06,0.59,0.73,0.94
7.815940856933594,0.5,-0.15,0.35,0.62
7.826167106628418,0.25,0.35,0.09,0.43
7.836113929748535,-0.05,0.87,-0.12,0.87
7.86083984375,0.98,0.55,0.2,1.14
7.862040996551514,0.38,0.3,-0.39,0.62
7.865725040435791,-0.4,0.64,-0.62,0.97
7.876810073852539,0.4,0.53,0.0,0.66
7.885892868041992,1.21,0.27,0.18,1.25
7.896275043487549,0.79,0.28,-0.19,0.85
7.905785083770752,0.01,0.61,-0.01,0.61
7.9167540073394775,0.67,0.73,0.24,1.01
7.926118850708008,1.29,0.82,0.26,1.55
7.9363110065460205,1.32,1.08,0.46,1.76
7.962116003036499,1.32,1.38,0.35,1.94
7.963227033615112,1.39,1.62,-0.05,2.13
7.965723991394043,1.44,1.61,-0.64,2.25
7.977031946182251,1.55,1.7,-1.09,2.54
7.986039161682129,1.71,2.06,-1.32,2.98
7.996032953262329,2.07,2.61,-1.39,3.6
8.006978988647461,2.59,3.18,-1.19,4.27
8.01636004447937,3.27,3.78,-0.78,5.05
8.026350021362305,4.18,4.85,-0.72,6.44
8.036550045013428,5.19,7.38,-1.05,9.08
8.06210994720459,6.13,10.94,1.98,12.69
8.063291072845459,8.2,13.68,3.91,16.42
8.066611051559448,11.8,13.3,2.84,18.0
8.07631802558899,15.08,10.89,3.02,18.84
8.086249828338623,16.55,8.05,1.11,18.43
8.096670150756836,14.88,6.81,-1.78,16.46
8.10777497291565,9.86,6.39,0.42,11.75
8.116537094116211,2.95,4.97,2.33,6.23
8.126603126525879,-0.95,5.44,8.01,9.72
8.136677980422974,-0.26,5.99,12.76,14.09
8.162033081054688,2.84,5.84,8.65,10.81
8.163194179534912,5.08,5.71,5.58,9.46
8.166422843933105,5.36,6.52,1.7,8.6
8.177475929260254,4.75,7.82,0.55,9.16
8.186388969421387,4.75,8.16,3.05,9.92
8.197461128234863,6.08,5.42,3.38,8.81
8.20718502998352,7.5,1.18,3.86,8.51
8.216799020767212,8.6,-2.08,3.85,9.64
8.227090835571289,9.63,-4.12,3.48,11.03
8.237072944641113,10.14,-5.42,3.46,12.0
8.261630058288574,9.75,-5.43,4.52,12.04
8.262822151184082,9.1,-4.14,6.14,11.73
8.266716003417969,8.77,-2.79,7.53,11.89
8.277678966522217,8.86,-2.28,8.45,12.45
8.286563873291016,9.32,-2.79,8.57,12.96
8.296808958053589,9.74,-3.72,7.86,13.05
8.306710004806519,9.63,-4.14,6.96,12.58
8.317583084106445,9.05,-3.75,6.09,11.53
8.32706594467163,8.0,-2.58,6.02,10.33
8.338541984558105,6.61,-1.55,6.98,9.73
8.361037015914917,5.26,-1.3,7.91,9.58
8.361891031265259,4.2,-1.66,8.46,9.58
8.366879940032959,3.55,-1.92,8.87,9.74
8.377977848052979,3.29,-1.59,9.28,9.97
8.386815071105957,3.21,-0.79,9.57,10.12
8.397310018539429,3.1,0.15,9.62,10.1
8.40781307220459,2.87,1.11,9.44,9.92
8.417118072509766,2.52,2.13,9.04,9.62
8.427341938018799,1.92,3.0,8.81,9.5
8.439404010772705,0.81,3.66,9.21,9.94
8.461282968521118,-0.57,4.16,9.77,10.63
8.462435007095337,-1.01,4.81,7.33,8.82
8.467091083526611,-1.58,6.37,5.79,8.75
8.477223873138428,-1.82,7.48,8.19,11.24
8.488112926483154,-1.53,7.7,8.87,11.84
8.497644901275635,-1.6,7.77,8.92,11.93
8.507236957550049,-2.13,8.73,8.63,12.45
8.518186092376709,-3.33,10.71,9.1,14.44
8.527683973312378,-5.15,12.68,5.94,14.91
8.539438962936401,-6.94,13.05,0.24,14.78
8.561286926269531,-9.54,12.4,3.12,15.95
8.562183856964111,-13.19,11.14,6.57,18.47
8.567049980163574,-17.69,8.22,6.42,20.53
8.577270984649658,-21.61,4.99,4.58,22.64
8.588703155517578,-23.85,3.92,3.06,24.36
8.59774899482727,-26.49,2.82,-0.54,26.64
8.607934951782227,-29.9,0.17,-4.64,30.25
8.617671966552734,-32.0,-1.95,-3.92,32.29
8.62783694267273,-30.95,-1.71,0.1,30.99
8.638710021972656,-26.81,0.61,2.31,26.91
8.66062593460083,-21.16,1.55,-2.4,21.35
8.661509037017822,-11.59,4.95,-5.99,13.95
8.667335987091064,2.3,11.81,-12.37,17.25
8.677640914916992,17.43,11.77,-5.44,21.72
8.6890389919281,24.41,8.15,-4.09,26.05
8.697520017623901,16.25,4.58,-3.76,17.29
8.707603931427002,3.95,3.16,2.86,5.81
8.71757698059082,-4.62,4.81,13.75,15.28
8.729567050933838,-16.07,7.25,-2.34,17.78
8.740847110748291,-25.3,0.83,-2.0,25.39
8.762397050857544,-19.44,-5.37,1.59,20.23
8.763606071472168,-10.04,-6.69,0.7,12.08
8.767598152160645,1.1,-7.83,2.89,8.41
8.77782392501831,2.74,-8.94,2.61,9.7
8.789370059967041,2.04,-1.0,-3.55,4.21
8.797912120819092,8.25,14.83,-0.9,16.99
8.807914018630981,11.43,8.72,3.63,14.82
8.818351030349731,6.49,-5.43,-1.46,8.58
8.82788610458374,2.14,-6.07,-1.13,6.53
8.841068983078003,-5.32,-2.48,0.59,5.89
8.854099035263062,-10.61,1.35,-0.81,10.72
8.861513137817383,-9.18,3.36,-1.51,9.89
8.867902994155884,-2.63,1.49,-1.16,3.23
8.87902307510376,4.25,-1.79,2.62,5.3
8.889811038970947,7.15,-1.57,2.29,7.67
8.898007869720459,5.15,0.92,-1.03,5.33
8.908079147338867,1.67,2.37,-0.74,2.99
8.917931079864502,-0.93,1.01,0.22,1.39
8.928977012634277,-1.4,-0.13,0.01,1.4
8.939944982528687,-1.18,0.09,-0.52,1.29
8.961874008178711,-0.81,0.66,-1.51,1.83
8.96275806427002,0.08,0.65,-0.83,1.05
8.968016147613525,-0.27,0.99,-0.16,1.03
8.97813892364502,-0.51,0.85,0.45,1.08
8.988626956939697,0.83,-0.33,0.38,0.97
8.998201847076416,1.42,-0.73,0.32,1.62
9.008278846740723,0.17,0.47,0.34,0.6
9.018221855163574,-0.32,0.64,0.49,0.86
9.029842853546143,0.18,-0.04,1.09,1.1
9.03866696357727,0.61,-0.1,1.4,1.53
9.061704158782959,1.29,0.06,1.2,1.76
9.062553882598877,1.5,0.28,0.8,1.72
9.068459033966064,1.11,0.53,0.64,1.38
9.079472064971924,0.71,0.59,0.37,0.99
9.088515996932983,0.46,0.52,0.04,0.69
9.098506927490234,0.43,0.59,-0.12,0.73
9.109339952468872,0.56,0.92,0.04,1.07
9.11882209777832,0.89,1.38,0.33,1.67
9.12899899482727,1.33,1.58,0.23,2.07
9.13892412185669,1.56,1.33,-0.29,2.07
9.163252830505371,1.46,0.96,-1.09,2.05
9.164485931396484,1.13,1.02,-1.55,2.17
9.168675899505615,1.07,1.7,-0.86,2.18
9.178596019744873,1.86,2.79,0.37,3.37
9.190508842468262,3.27,4.07,2.47,5.77
9.198604106903076,5.01,5.36,3.91,8.31
9.209100008010864,6.52,6.65,3.97,10.12
9.219111919403076,7.46,8.18,3.03,11.47
9.229241847991943,8.06,11.16,1.45,13.84
9.238833904266357,8.73,14.66,3.4,17.39
9.262738943099976,11.57,15.11,2.36,19.17
9.263633966445923,15.53,12.2,1.92,19.84
9.268670082092285,17.37,10.44,3.2,20.51
9.278801918029785,17.15,8.75,3.18,19.51
9.289383888244629,15.17,4.13,4.63,16.38
9.298933982849121,10.23,1.47,3.86,11.03
9.310212135314941,3.01,2.67,7.41,8.43
9.319216012954712,-2.03,3.74,8.8,9.77
9.329607963562012,-3.54,3.71,4.51,6.82
9.339236974716187,-3.62,4.18,4.6,7.19
9.363154888153076,-3.77,6.13,5.43,9.01
9.364351034164429,-3.12,7.56,6.19,10.25
9.369163036346436,-0.45,6.16,6.79,9.17
9.379173040390015,2.78,2.88,5.64,6.91
9.389246940612793,6.27,-0.72,4.1,7.52
9.399073123931885,10.32,-4.2,2.33,11.38
9.409145832061768,13.68,-6.54,0.95,15.19
9.420175075531006,14.88,-6.59,0.59,16.28
9.429253101348877,13.82,-5.32,0.71,14.82
9.439865112304688,12.05,-3.71,1.54,12.7
9.455574035644531,10.59,-2.23,2.91,11.2
9.463675022125244,9.44,-1.49,3.32,10.11
9.46924901008606,8.72,-1.88,2.68,9.31
9.479735851287842,8.21,-2.95,1.58,8.86
9.489804029464722,7.61,-3.75,0.47,8.49
9.499300956726074,6.81,-3.91,-0.47,7.86
9.50954794883728,5.69,-3.21,-2.24,6.9
9.520159006118774,4.25,-2.06,-5.08,6.93
9.529788970947266,3.2,-1.71,-3.87,5.3
9.539671897888184,2.82,-1.4,-3.79,4.92
9.557243824005127,2.88,-1.05,-3.95,4.99
9.565500020980835,3.14,-0.55,-4.46,5.48
9.569220066070557,3.53,0.26,-5.8,6.79
9.579493999481201,3.74,1.26,-6.26,7.4
9.590674877166748,3.65,2.23,-6.86,8.08
9.599560976028442,3.14,2.99,-7.9,9.01
9.60952091217041,2.17,3.61,-8.86,9.81
9.620509147644043,0.85,4.43,-9.29,10.32
9.630156993865967,-0.68,5.49,-9.38,10.88
9.639700889587402,-2.23,6.45,-8.62,10.99
9.657322883605957,-3.35,7.24,-8.23,11.46
9.666692972183228,-3.8,7.77,-8.16,11.89
9.669772148132324,-4.07,8.31,-6.88,11.53
9.680737972259521,-4.68,9.11,-4.62,11.23
9.690709114074707,-5.72,10.13,-3.17,12.05
9.700346946716309,-6.94,11.08,-2.82,13.37
9.710140943527222,-8.17,11.64,-2.44,14.42
9.720295906066895,-9.76,11.74,-2.26,15.43
9.730373859405518,-12.17,11.44,-2.98,16.96
9.740068912506104,-14.79,9.54,-3.14,17.87
9.756997108459473,-17.17,5.63,-1.77,18.15
9.764240980148315,-19.85,1.6,0.83,19.93
9.770254135131836,-23.75,-0.9,3.32,23.99
9.780984878540039,-27.02,-1.75,5.61,27.65
9.790565967559814,-26.16,-1.71,6.44,26.99
9.80101203918457,-21.51,-2.42,8.77,23.35
9.80997085571289,-11.6,0.2,14.14,18.29
9.821054935455322,-2.63,6.04,6.2,9.04
9.830769062042236,2.6,7.36,-4.26,8.89
9.840497016906738,4.24,8.99,-11.97,15.55
9.857655048370361,3.44,8.65,-1.58,9.44
9.86564588546753,-0.2,6.52,3.37,7.34
9.870151996612549,-4.54,3.1,9.72,11.16
9.880125999450684,-6.53,-1.27,1.93,6.92
9.890285015106201,-5.67,-3.35,-0.64,6.61
9.900237083435059,-5.87,-0.99,-2.47,6.44
9.912552833557129,-6.74,0.26,1.41,6.89
9.92068099975586,-6.3,1.0,-0.55,6.4
9.930860042572021,-5.65,0.74,-2.89,6.38
9.94055986404419,-4.7,0.51,-4.33,6.41
9.957881927490234,-2.38,2.08,-5.34,6.2
9.965497970581055,0.22,3.09,-3.8,4.9
9.970664978027344,1.91,1.62,-1.58,2.96
9.980309963226318,2.55,-0.91,0.63,2.77
9.990837097167969,2.65,-1.92,3.09,4.5
10.000420093536377,2.44,-1.22,4.36,5.14
10.011859893798828,1.99,-0.86,3.03,3.72
10.020694017410278,1.17,-0.35,0.44,1.29
10.030807971954346,0.14,0.49,-0.99,1.11
10.0413818359375,-0.83,0.27,-0.72,1.13
10.058477878570557,-1.51,-0.88,0.53,1.82
10.066740036010742,-1.66,-1.4,1.32,2.54
10.070495128631592,-1.18,-0.82,1.15,1.84
10.080565929412842,-0.1,0.25,0.27,0.38
10.090657949447632,1.1,0.88,-0.57,1.51
10.100613117218018,1.74,0.86,-0.61,2.03
10.113236904144287,1.63,0.26,0.03,1.65
10.120905876159668,0.98,-0.4,0.93,1.4
10.131351947784424,0.3,-0.68,1.63,1.79
10.141100883483887,-0.02,-0.6,1.26,1.39
10.158215045928955,-0.11,-0.28,0.4,0.5
10.166980028152466,-0.12,0.21,0.11,0.26
10.170988082885742,0.15,0.3,-0.25,0.41
10.180789947509766,-0.08,0.39,-0.65,0.76
10.191318988800049,-0.14,0.62,-0.07,0.63
10.200862884521484,0.49,0.51,0.18,0.72
10.213621139526367,0.31,0.46,-0.41,0.68
10.221114158630371,-0.18,1.14,0.12,1.16
10.231215953826904,0.32,1.16,1.16,1.67
10.241321086883545,1.06,-0.45,-0.51,1.25
10.258345127105713,1.03,0.13,1.35,1.7
10.267277956008911,0.31,0.43,0.98,1.11
10.27082896232605,-0.27,0.48,-0.09,0.55
10.2809419631958,0.17,0.72,-0.65,0.98
10.291115045547485,0.51,1.15,-0.69,1.43
10.30106782913208,0.36,1.08,-0.33,1.18
10.313912868499756,0.35,0.79,-0.39,0.94
10.321414947509766,0.42,0.78,-0.34,0.94
10.331945896148682,0.65,0.96,-0.09,1.16
10.341576099395752,1.04,1.18,-0.04,1.57
10.35833215713501,1.43,1.62,-0.34,2.18
10.367992877960205,1.67,2.17,-0.58,2.79
10.371211051940918,1.85,2.56,-0.56,3.2
10.381206035614014,2.1,2.97,-0.26,3.64
10.391793966293335,2.51,3.54,-0.08,4.34
10.40132999420166,2.99,4.17,-0.21,5.13
10.414780139923096,3.54,4.83,-0.59,6.01
10.42154598236084,4.17,5.83,-1.83,7.39
10.431815147399902,4.64,7.41,-1.79,8.92
10.44163990020752,5.36,8.93,2.43,10.69
10.467635154724121,7.21,10.23,1.83,12.64
10.470010042190552,9.5,11.35,0.25,14.8
10.47154712677002,12.08,13.19,0.65,17.89
10.481515884399414,15.4,14.05,-1.82,20.92
10.491654872894287,18.1,12.16,-9.33,23.71
10.502444982528687,18.64,8.53,-7.89,21.96
10.514395952224731,15.25,3.81,-0.97,15.74
10.521939992904663,8.51,-1.0,3.89,9.41
10.532000064849854,5.59,-1.13,5.38,7.84
10.542266845703125,3.32,2.0,5.43,6.67
10.560841083526611,1.49,5.06,4.92,7.21
10.569241046905518,0.33,6.94,4.29,8.16
10.571707010269165,-0.02,9.15,2.19,9.4
10.58170199394226,2.28,7.12,0.19,7.47
10.592342853546143,6.21,3.5,-0.73,7.16
10.602277040481567,9.21,-0.25,1.41,9.32
10.612316131591797,11.57,-4.33,5.73,13.61
10.621970176696777,13.21,-6.8,5.26,15.76
10.632199048995972,13.79,-7.21,-0.93,15.58
10.642267942428589,14.67,-7.22,0.07,16.35
10.66049599647522,14.15,-6.4,3.74,15.97
10.66910195350647,11.67,-4.62,1.77,12.67
10.671926975250244,8.88,-3.01,0.89,9.41
10.681915998458862,6.77,-1.54,1.42,7.08
10.69290804862976,5.53,-0.3,1.4,5.71
10.702777862548828,5.16,0.04,0.85,5.22
10.712435960769653,5.44,-0.79,0.35,5.5
10.722182035446167,5.8,-1.47,-0.18,5.98
10.732481002807617,5.94,-1.05,-0.95,6.1
10.74226188659668,5.78,0.28,-1.51,5.98
10.760938167572021,4.99,2.25,-1.9,5.79
10.769650936126709,3.41,3.77,-2.45,5.64
10.772233963012695,1.19,4.18,-3.47,5.56
10.78218412399292,-1.4,3.57,-4.39,5.82
10.792294979095459,-4.04,2.58,-4.43,6.52
10.802922010421753,-5.78,2.19,-4.11,7.42
10.81308889389038,-5.95,2.46,-3.6,7.37
10.822182178497314,-4.56,2.92,-3.27,6.32
10.83287501335144,-2.57,3.36,-2.71,5.02
10.842725038528442,-1.13,3.95,-1.41,4.34
10.86041784286499,-0.71,4.79,0.37,4.85
10.862241983413696,-1.22,5.72,1.85,6.13
10.872551918029785,-2.43,6.76,3.37,7.93
10.882269859313965,-4.45,8.03,4.98,10.44
10.892410039901733,-7.04,9.12,5.76,12.88
10.902421951293945,-9.73,9.58,4.14,14.26
10.913141965866089,-11.44,8.87,-1.15,14.52
10.92287302017212,-12.93,7.04,-0.48,14.73
10.932896137237549,-15.37,5.17,4.62,16.86
10.943189144134521,-19.93,3.02,11.65,23.28
10.960137844085693,-22.85,1.4,8.81,24.52
10.962409973144531,-22.01,1.57,7.92,23.44
10.972677946090698,-22.69,1.9,3.58,23.04
10.982472896575928,-24.34,1.76,3.34,24.63
10.992977142333984,-24.86,-0.1,0.78,24.87
11.003178119659424,-23.41,-0.61,-1.84,23.49
11.012598037719727,-20.4,1.99,-1.77,20.57
11.023187160491943,-8.65,7.24,-2.22,11.49
11.034260034561157,10.83,8.88,-5.48,15.03
11.042759895324707,36.87,5.53,5.57,37.69
11.060523986816406,32.64,1.18,0.33,32.66
11.062849044799805,6.96,2.96,6.2,9.77
11.073580980300903,-8.01,5.48,4.96,10.89
11.08290696144104,-15.84,8.96,-1.52,18.26
11.093843936920166,-22.71,6.3,1.72,23.63
11.10373306274414,-22.4,-4.77,4.04,23.25
11.113157987594604,-12.85,-10.11,4.03,16.83
11.122866153717041,-2.43,-5.88,1.36,6.5
11.133398056030273,2.99,-2.42,0.01,3.84
11.143409013748169,5.4,0.78,1.17,5.58
11.16015100479126,5.68,3.39,-0.82,6.66
11.162805080413818,5.07,4.69,-2.75,7.43
11.173403024673462,3.81,2.87,-2.45,5.36
11.182881832122803,2.07,-0.36,-0.39,2.13
11.193058967590332,-0.41,-2.69,2.36,3.6
11.202945947647095,-2.81,-3.4,3.61,5.69
11.213583946228027,-4.09,-2.12,3.05,5.52
11.223459959030151,-3.6,-0.16,1.31,3.83
11.233611106872559,-1.62,0.56,-0.8,1.89
11.24348497390747,0.52,0.1,-2.07,2.13
11.261672973632812,1.44,-0.09,-1.61,2.16
11.263030052185059,1.32,0.89,-0.15,1.59
11.27396011352539,0.93,1.5,0.57,1.85
11.283143997192383,0.89,0.73,-1.52,1.9
11.293766975402832,0.22,0.84,-2.84,2.96
11.303205013275146,-1.08,0.9,-2.27,2.67
11.31407904624939,-1.67,0.19,-0.91,1.91
11.323843955993652,-1.33,-0.67,0.65,1.62
11.333807945251465,-1.07,-0.73,0.94,1.6
11.34372615814209,-0.67,-0.33,0.83,1.11
11.361263990402222,0.71,-0.28,0.26,0.8
11.363254070281982,1.08,0.41,-0.61,1.3
11.373671054840088,0.6,0.56,-0.33,0.88
11.383222103118896,0.63,0.01,0.38,0.73
11.394362926483154,0.48,0.25,0.1,0.55
11.403409957885742,-0.56,0.5,-0.07,0.75
11.414392948150635,-0.46,0.11,0.07,0.47
11.423926830291748,0.27,0.3,0.2,0.45
11.433917999267578,0.47,0.38,0.32,0.68
11.443893909454346,0.36,0.3,0.13,0.48
11.46251392364502,0.3,0.53,-0.15,0.62
11.464959144592285,0.33,0.57,-0.31,0.72
11.473689079284668,0.27,0.34,-0.4,0.59
11.48348093032837,0.07,0.4,-0.16,0.43
11.493648052215576,0.0,0.67,-0.29,0.73
11.503623008728027,0.05,0.95,-0.9,1.3
11.51467514038086,-0.02,1.27,-1.02,1.62
11.523555994033813,0.28,1.48,-1.21,1.93
11.536355972290039,0.64,2.0,-1.32,2.48
11.54394006729126,0.88,2.61,-1.3,3.04
11.561387062072754,1.27,3.17,-1.35,3.67
11.563592910766602,1.69,3.65,-1.21,4.2
11.574461936950684,2.15,3.96,-0.88,4.59
11.584723949432373,2.85,4.36,-0.55,5.23
11.59500789642334,3.49,4.84,-0.54,5.99
11.603732109069824,3.86,5.49,-0.48,6.72
11.613956928253174,4.07,6.94,-0.04,8.04
11.624878883361816,4.7,9.41,1.0,10.56
11.636338949203491,6.22,12.52,3.32,14.36
11.644377946853638,9.18,14.68,3.67,17.69
11.661800861358643,13.0,14.06,0.11,19.14
11.664093971252441,15.58,11.49,-3.51,19.67
11.674414157867432,15.98,8.32,-3.94,18.44
11.685201168060303,15.11,4.43,-1.0,15.77
11.695348978042603,10.62,0.09,-4.06,11.36
11.70418405532837,1.85,-5.25,12.6,13.77
11.714922904968262,-0.91,-6.4,8.83,10.94
11.724518060684204,-0.34,-3.48,4.15,5.42
11.736371994018555,-1.41,2.34,-0.62,2.8
11.744659900665283,-3.18,6.93,-0.74,7.66
11.761652946472168,-0.54,5.08,2.85,5.84
11.764145851135254,3.93,0.34,5.57,6.82
11.774399042129517,8.28,-3.48,6.56,11.12
11.785699844360352,11.36,-5.79,5.1,13.73
11.794515132904053,12.14,-6.69,5.84,15.04
11.804265975952148,11.59,-5.68,7.4,14.87
11.815459966659546,11.05,-3.69,8.32,14.31
11.824422836303711,11.01,-1.77,9.24,14.48
11.83757996559143,11.23,-0.7,9.49,14.71
11.844341039657593,11.6,-0.45,8.62,14.45
11.860913038253784,11.72,-0.34,7.36,13.84
11.864675998687744,10.77,0.06,7.7,13.23
11.87521505355835,8.96,0.19,9.28,12.9
11.886105060577393,6.81,-0.22,10.46,12.48
11.894688129425049,4.52,-0.97,10.88,11.82
11.904653072357178,2.3,-1.46,11.23,11.55
11.915535926818848,0.55,-1.17,11.86,11.93
11.925709009170532,-0.42,-0.28,12.24,12.25
11.938245058059692,-0.51,0.6,11.8,11.82
11.945022106170654,0.33,1.36,10.8,10.89
11.961965084075928,1.48,2.38,9.95,10.33
11.964563846588135,1.83,3.47,9.98,10.72
11.975312948226929,0.68,4.23,10.35,11.2
11.986504077911377,-1.39,4.62,10.53,11.58
11.995872974395752,-3.81,4.72,10.79,12.37
12.004650115966797,-6.28,4.83,11.06,13.6
12.015852928161621,-8.01,5.55,11.35,14.95
12.02534008026123,-8.09,6.61,11.55,15.57
12.037489891052246,-6.73,7.12,11.6,15.18
12.045188903808594,-5.17,7.22,11.52,14.54
12.06279993057251,-4.29,7.2,11.85,14.51
12.064738988876343,-4.59,6.87,12.8,15.23
12.07557487487793,-5.8,6.24,14.19,16.55
12.085888862609863,-7.06,5.29,14.3,16.8
12.095134973526001,-7.28,3.94,6.98,10.82
12.105453968048096,-6.18,1.9,4.86,8.08
12.115507125854492,-7.58,1.41,3.53,8.47
12.12560510635376,-11.62,2.62,5.5,13.12
12.13740587234497,-15.83,3.02,10.12,19.02
12.145208835601807,-17.76,2.55,10.85,20.96
12.163618087768555,-16.46,2.0,5.73,17.54
12.165002822875977,-14.44,1.42,0.0,14.5
12.175268173217773,-13.2,0.95,-2.76,13.51
12.185122013092041,-12.16,0.64,-1.56,12.27
12.19532585144043,-11.03,0.43,-0.61,11.05
12.20519208908081,-9.45,-0.18,-0.71,9.47
12.215193033218384,-6.55,-1.25,-1.2,6.77
12.225280046463013,-3.96,-2.73,-2.24,5.3
12.236035823822021,-2.84,-3.3,-3.35,5.49
12.245480060577393,-1.28,-2.48,-3.76,4.68
12.26239800453186,2.3,-0.34,-1.5,2.76
12.265367984771729,6.42,5.89,5.49,10.29
12.275578022003174,8.2,13.56,5.59,16.8
12.285343170166016,7.1,10.74,-3.58,13.36
12.295469999313354,-0.1,0.05,-0.83,0.83
12.30582594871521,-9.49,-5.58,0.91,11.04
12.315943002700806,-10.32,-3.79,1.29,11.06
12.326496124267578,-3.99,-0.77,0.89,4.15
12.33591103553772,1.89,0.74,1.64,2.6
12.345770835876465,4.38,0.69,2.13,4.91
12.363399982452393,4.36,0.58,1.33,4.59
12.365448951721191,2.07,-0.17,0.51,2.13
12.37562608718872,-1.0,-0.88,-0.5,1.42
12.387467861175537,-2.71,-0.3,0.97,2.89
12.395720958709717,-2.72,0.35,-1.74,3.24
12.405608177185059,-1.89,0.18,-0.76,2.04
12.415742874145508,-0.86,0.81,-0.96,1.52
12.425660133361816,0.53,0.83,-0.9,1.33
12.43570613861084,1.29,0.31,-0.16,1.33
12.446669101715088,1.11,-0.23,0.13,1.14
12.464209079742432,0.4,-0.28,0.16,0.51
12.465702056884766,-0.41,-0.09,0.17,0.45
12.476958990097046,-0.79,0.1,0.17,0.81
12.486230850219727,-0.22,0.35,0.0,0.41
12.49652099609375,0.37,0.22,-0.11,0.44
12.505771160125732,0.32,-0.03,-0.32,0.45
12.516666889190674,-0.06,-0.03,-0.8,0.8
12.526299953460693,-0.36,0.14,-0.29,0.48
12.536195993423462,-0.2,0.4,-0.66,0.79
12.546242952346802,0.2,0.47,-0.79,0.94
12.564024925231934,0.42,0.48,-0.52,0.82
12.5658860206604,0.5,0.6,-0.12,0.79
12.577494144439697,0.45,0.57,0.13,0.73
12.586030960083008,0.3,0.27,-0.15,0.43
12.596045970916748,-0.01,0.0,0.4,0.4
12.605979919433594,0.1,-0.26,-1.15,1.18
12.616232872009277,-0.31,-0.17,1.35,1.39
12.627561092376709,0.16,0.18,-0.87,0.9
12.636518001556396,0.65,0.02,0.89,1.1
12.646326065063477,0.55,0.62,1.97,2.13
12.663311004638672,1.41,0.55,-0.5,1.59
12.666185855865479,1.14,0.0,1.56,1.93
12.677392959594727,0.5,0.77,3.12,3.25
12.686708927154541,0.76,1.21,2.33,2.73
12.69688892364502,1.27,0.33,-0.62,1.45
12.706712007522583,0.83,-0.4,1.1,1.43
12.716462135314941,0.04,0.76,0.02,0.76
12.727864027023315,0.19,1.09,-1.8,2.11
12.73666000366211,-0.27,0.78,0.29,0.87
12.746721029281616,-0.33,1.06,0.16,1.12
12.763070106506348,-0.01,1.11,1.25,1.67
12.766479015350342,0.42,1.23,2.06,2.43
12.778348922729492,1.0,2.4,2.64,3.7
12.786406993865967,1.89,4.59,3.84,6.27
12.796588897705078,2.94,5.06,5.44,7.99
12.80643105506897,3.82,3.5,4.97,7.17
12.817495822906494,3.95,1.58,5.16,6.68
12.826491832733154,3.56,1.08,4.81,6.08
12.837437152862549,3.65,1.81,4.02,5.72
12.846808910369873,3.65,1.91,4.61,6.18
12.863998889923096,3.44,1.89,5.49,6.74
12.866476058959961,2.61,2.71,5.68,6.81
12.878484964370728,-0.34,4.49,6.09,7.57
12.887146949768066,-1.32,4.56,9.65,10.75
12.897433042526245,4.35,0.23,12.68,13.4
12.906712055206299,9.26,-1.66,10.18,13.86
12.917590141296387,6.03,1.71,9.32,11.23
12.927260875701904,-0.48,7.01,7.55,10.31
12.936998844146729,-5.17,8.96,3.32,10.86
12.947319984436035,-7.78,7.1,2.28,10.77
12.96556305885315,-7.86,4.87,4.77,10.4
12.966809034347534,-5.22,3.75,6.59,9.2
12.979276180267334,-1.04,2.33,6.11,6.62
12.986861944198608,3.5,0.94,4.17,5.52
12.99714994430542,8.07,0.24,0.75,8.1
13.006957054138184,12.44,0.69,-0.97,12.49
13.0187349319458,15.74,1.65,-0.49,15.83
13.02749490737915,17.19,1.58,1.22,17.3
13.037250995635986,16.86,-0.21,3.18,17.15
13.047595024108887,15.48,-3.25,5.42,16.72
13.066602945327759,12.78,-5.01,3.47,14.15
13.068753004074097,10.89,-4.14,-0.3,11.65
13.079741954803467,9.59,-2.25,-2.13,10.07
13.087066173553467,8.4,-0.75,-3.45,9.11
13.09833288192749,7.26,-0.17,-4.98,8.8
13.107090950012207,6.08,-0.19,-5.88,8.46
13.117270946502686,5.1,-0.32,-5.51,7.51
13.12804889678955,4.59,-0.44,-4.37,6.35
13.13769817352295,4.72,-0.73,-3.6,5.98
13.147806167602539,5.44,-0.98,-3.62,6.6
13.165360927581787,6.47,-0.75,-3.92,7.6
13.16725206375122,7.34,0.0,-4.14,8.42
13.180156946182251,7.57,1.0,-4.11,8.67
13.187389850616455,7.06,1.82,-3.87,8.25
13.197582960128784,5.94,2.17,-3.89,7.42
13.209418058395386,4.42,2.17,-4.39,6.59
13.217965126037598,2.82,2.48,-4.75,6.05
13.227854013442993,1.51,3.41,-4.8,6.07
13.238017082214355,0.49,4.51,-4.9,6.67
13.248056888580322,-0.33,5.36,-5.16,7.44
13.266799926757812,-1.08,5.84,-5.33,7.98
13.269134044647217,-1.92,6.2,-5.09,8.24
13.280563831329346,-2.99,6.41,-4.34,8.29
13.287518978118896,-4.44,6.35,-3.26,8.4
13.297780990600586,-6.24,6.14,-1.97,8.97
13.30988883972168,-8.35,5.75,-1.29,10.22
13.317808151245117,-10.45,5.24,-1.33,11.76
13.327582836151123,-12.13,4.36,-1.81,13.01
13.338335990905762,-12.9,3.01,-2.45,13.47
13.348333835601807,-12.68,1.61,-2.94,13.11
13.367373943328857,-11.87,0.47,-3.33,12.33
13.369564056396484,-10.89,-0.18,-4.54,11.79
13.38099193572998,-9.84,-0.37,-5.14,11.1
13.387771129608154,-9.38,-0.21,-3.77,10.11
13.397909164428711,-10.15,0.36,-1.7,10.29
13.409304141998291,-11.95,0.92,0.48,11.99
13.418686866760254,-13.42,0.74,1.82,13.56
13.428336143493652,-12.57,0.15,2.81,12.88
13.43814992904663,-10.05,-0.4,3.32,10.59
13.448627948760986,-8.21,-1.47,3.11,8.9
13.468039989471436,-7.03,-2.33,5.09,8.98
13.470371007919312,-6.29,0.91,4.71,7.91
13.48148488998413,-6.09,6.56,3.49,9.6
13.487958908081055,-4.23,8.47,-2.51,9.79
13.498126029968262,-1.06,8.48,-9.28,12.61
13.509552955627441,1.84,6.96,4.47,8.47
13.518186092376709,1.77,3.74,1.4,4.36
13.529023170471191,-1.2,0.27,-1.19,1.71
13.538815021514893,-3.22,-2.44,-2.53,4.76
13.54858684539795,-3.06,-2.88,-0.83,4.28
13.567116975784302,-2.81,-1.16,1.48,3.38
13.569383144378662,-3.62,0.25,1.53,3.93
13.581505060195923,-3.68,0.51,-0.9,3.82
13.588194847106934,-2.71,0.61,-3.55,4.5
13.598945140838623,-1.62,1.9,-4.65,5.27
13.60997200012207,-0.65,3.14,-4.05,5.16
13.618376970291138,0.12,2.41,-2.13,3.21
13.628705978393555,0.3,0.57,-0.29,0.7
13.638689994812012,0.23,-0.94,1.24,1.57
13.648788928985596,0.37,-1.4,2.12,2.56
13.668001174926758,0.48,-1.14,2.39,2.69
13.670167922973633,0.6,-1.09,2.05,2.39
13.682139873504639,0.83,-0.99,1.49,1.97
13.688229084014893,0.57,-0.86,1.38,1.72
13.699023962020874,0.03,-0.91,1.27,1.56
13.708384037017822,-0.22,-0.53,0.82,1.0
13.718662023544312,-0.24,0.1,0.15,0.3
13.72848892211914,-0.21,0.48,-0.57,0.77
13.740113973617554,-0.05,1.02,-1.11,1.5
13.748955965042114,0.08,0.91,-1.3,1.58
13.77064299583435,0.06,0.44,-1.31,1.38
13.771830081939697,-0.1,0.32,-0.47,0.57
13.7825608253479,-0.1,-0.01,0.28,0.29
13.788617134094238,0.18,-0.2,0.65,0.7
13.798808097839355,0.38,-0.05,0.45,0.59
13.809319019317627,0.47,0.17,0.33,0.59
13.819416999816895,0.53,0.1,0.05,0.54
13.829313039779663,0.33,0.07,0.22,0.4
13.839064121246338,0.18,0.04,0.51,0.54
13.849400043487549,0.01,0.08,0.27,0.28
13.868358135223389,0.07,0.17,0.25,0.31
13.870532035827637,0.24,0.44,-0.02,0.5
13.883103847503662,0.25,0.52,0.17,0.6
13.888805866241455,1.0,0.27,0.92,1.38
13.900109052658081,1.55,-0.05,1.04,1.86
13.908983945846558,0.78,0.44,1.15,1.45
13.91982889175415,0.85,0.43,1.06,1.42
13.930089950561523,1.11,0.59,0.03,1.25
13.939227104187012,0.36,2.37,0.63,2.47
13.949321031570435,0.36,1.2,0.54,1.36
13.968729972839355,1.3,-0.28,-0.7,1.5
13.97088098526001,0.89,1.44,0.91,1.92
13.983572959899902,-0.09,2.16,-0.94,2.35
13.989197015762329,-0.04,1.82,-3.26,3.73
13.999188899993896,0.4,1.87,-3.21,3.73
14.010889053344727,0.33,2.06,-2.05,2.92
14.01928997039795,0.41,2.22,-1.18,2.54
14.030148983001709,0.94,2.59,-0.43,2.78
14.039187908172607,1.74,2.78,0.52,3.32
14.050015926361084,2.49,2.72,1.29,3.9
14.067861080169678,2.94,2.81,1.59,4.36
14.069269180297852,3.14,3.23,1.29,4.68
14.0834641456604,3.22,3.83,0.42,5.02
14.089233875274658,3.22,4.93,-1.08,5.98
14.099939823150635,3.23,5.99,0.44,6.81
14.109357833862305,4.25,6.98,1.28,8.27
14.119467973709106,5.99,7.35,0.2,9.48
14.130553960800171,7.47,7.99,0.34,10.94
14.140012979507446,8.82,9.19,0.65,12.75
14.149919033050537,10.57,9.35,0.17,14.11
14.169550895690918,12.42,7.97,-0.57,14.76
14.171951055526733,13.58,5.66,-0.53,14.72
14.18465805053711,13.89,3.73,-0.11,14.38
14.190546989440918,12.21,2.65,-0.24,12.49
14.19959306716919,6.79,2.46,-1.26,7.33
14.21025800704956,2.37,1.73,4.19,5.11
14.219575881958008,0.75,2.81,7.48,8.02
14.230098009109497,0.98,3.03,5.41,6.27
14.239861965179443,0.87,4.24,4.39,6.16
14.25006103515625,0.16,6.88,2.76,7.41
14.26866602897644,0.91,7.35,1.76,7.61
14.270854949951172,3.34,5.77,2.84,7.24
14.284739017486572,6.33,3.7,3.69,8.2
14.289753913879395,8.93,1.55,3.72,9.79
14.299885034561157,10.43,-0.44,1.76,10.58
14.30980396270752,10.22,-1.67,0.9,10.39
14.320834159851074,8.61,-1.49,1.12,8.8
14.330172061920166,6.32,0.3,1.7,6.55
14.340266942977905,3.98,1.44,4.51,6.18
14.35050106048584,3.41,-0.04,5.09,6.12
14.36972188949585,5.35,-3.1,3.24,6.98
14.371923923492432,8.66,-5.86,2.19,10.68
14.38537311553955,11.25,-7.14,3.57,13.79
14.389951944351196,11.97,-6.68,4.38,14.39
14.400168895721436,11.16,-5.23,5.64,13.55
14.411249160766602,9.47,-3.36,7.78,12.7
14.420062065124512,7.67,-1.58,8.59,11.62
14.430674076080322,6.29,-0.49,7.73,9.97
14.440218925476074,5.34,-0.16,4.99,7.31
14.45055103302002,4.36,0.89,-1.69,4.76
14.475751876831055,3.13,1.74,3.08,4.72
14.476931095123291,2.62,2.11,5.09,6.1
14.48020601272583,1.84,2.03,4.97,5.67
14.491175174713135,0.42,2.23,4.62,5.14
14.500267028808594,-1.02,3.42,3.42,4.94
14.510977983474731,-2.37,4.57,3.84,6.42
14.520841121673584,-3.51,4.53,4.0,6.98
14.531888008117676,-4.21,3.53,3.44,6.48
14.540825843811035,-4.31,3.0,3.19,6.14
14.550993919372559,-3.99,3.45,3.12,6.12
14.571820974349976,-3.5,4.11,2.75,6.05
14.5730140209198,-2.81,4.46,2.84,5.98
14.586122035980225,-2.25,4.86,3.73,6.52
14.590406894683838,-2.19,5.41,4.28,7.23
14.600503921508789,-2.83,6.28,3.39,7.67
14.611489057540894,-4.58,7.68,2.24,9.21
14.621294975280762,-7.02,8.99,-0.05,11.4
14.632501125335693,-8.9,9.18,-4.43,13.53
14.640809059143066,-10.83,8.07,-2.65,13.76
14.651103973388672,-13.35,6.39,0.2,14.8
14.676764965057373,-16.97,4.46,2.1,17.67
14.67795205116272,-21.41,1.9,1.46,21.54
14.68056583404541,-24.16,-0.34,0.64,24.17
14.691140174865723,-24.2,-0.85,0.87,24.23
14.700899124145508,-23.39,-1.4,-0.02,23.43
14.711042881011963,-22.35,-3.75,-2.21,22.76
14.720849990844727,-19.76,-2.91,-5.9,20.82
14.730669021606445,-24.68,6.51,-4.95,25.99
14.741495132446289,-22.81,15.79,-6.14,28.41
14.751384973526001,-8.82,13.28,6.56,17.23
14.77535104751587,0.43,11.71,4.7,12.62
14.776485919952393,10.09,5.64,-5.17,12.66
14.780550956726074,8.85,-0.47,-7.53,11.62
14.791897058486938,1.3,0.26,-2.18,2.55
14.800929069519043,-1.28,0.96,-0.88,1.82
14.811334133148193,-2.95,0.79,-1.57,3.43
14.821009159088135,-4.82,-0.07,2.74,5.54
14.833373069763184,-4.19,-3.78,3.73,6.76
14.84130597114563,-1.31,-6.34,3.42,7.32
14.85149598121643,0.07,-2.53,4.29,4.98
14.876273155212402,-3.58,0.63,1.81,4.06
14.877228021621704,-4.5,1.68,-6.12,7.77
14.880800008773804,-0.51,4.73,-10.23,11.28
14.891263961791992,3.39,3.87,-4.26,6.67
14.901137828826904,3.9,-1.82,3.39,5.47
14.911940097808838,2.08,-4.79,8.5,9.97
14.92116117477417,0.08,-1.63,3.41,3.78
14.933763027191162,-0.33,1.3,-0.6,1.46
14.941437005996704,-0.05,0.33,-1.72,1.75
14.951580047607422,-0.48,-0.86,0.02,0.98
14.976035118103027,-0.87,-0.68,2.0,2.28
14.977051019668579,-0.53,-0.03,0.99,1.12
14.981897830963135,0.11,0.81,-0.81,1.15
14.992110013961792,0.77,0.97,-1.27,1.77
15.001335144042969,0.79,0.44,-0.53,1.04
15.011269092559814,0.15,0.06,0.82,0.83
15.021949052810669,-0.21,-0.09,0.58,0.62
15.033813953399658,-0.18,0.05,-0.16,0.24
15.041450023651123,-0.19,0.29,-0.28,0.44
15.051782131195068,-0.16,0.22,-0.11,0.29
15.078115940093994,-0.07,0.07,0.14,0.17
15.079288959503174,0.09,0.12,0.33,0.36
15.08286714553833,0.37,0.22,0.32,0.53
15.092612028121948,0.24,0.41,-0.19,0.51
15.101487159729004,-0.04,0.59,-0.35,0.68
15.111467838287354,0.05,0.53,-0.35,0.63
15.121592998504639,0.08,0.67,-0.77,1.02
15.134913921356201,-0.18,0.97,-0.3,1.03
15.142016887664795,0.1,0.75,-0.34,0.82
15.152001857757568,0.26,0.83,0.08,0.87
15.177736043930054,0.41,0.79,0.39,0.97
15.178905010223389,0.65,0.73,0.12,0.98
15.183356046676636,0.7,0.92,-0.14,1.16
15.191745042800903,0.54,0.82,-0.43,1.07
15.201921939849854,0.23,0.84,-0.16,0.88
15.211679935455322,0.18,0.97,0.24,1.01
15.222929954528809,0.6,1.02,0.44,1.26
15.234979152679443,0.96,1.1,0.63,1.59
15.24220085144043,1.07,1.0,0.82,1.67
15.25285291671753,1.15,0.79,0.68,1.55
15.277659893035889,1.12,0.49,0.09,1.22
15.278777122497559,0.71,0.32,-0.36,0.85
15.28344202041626,0.43,0.73,-0.19,0.86
15.293010950088501,0.85,1.19,0.01,1.46
15.301907062530518,1.63,1.65,0.26,2.33
15.312934875488281,2.38,2.32,0.79,3.41
15.322831153869629,3.02,3.15,0.98,4.47
15.332275867462158,3.44,5.04,0.19,6.1
15.342245101928711,3.48,7.2,1.44,8.12
15.3525869846344,4.55,8.09,3.24,9.83
15.377674102783203,6.79,8.72,2.13,11.25
15.378844976425171,8.62,9.71,2.38,13.2
15.382128953933716,10.08,11.26,2.38,15.29
15.39264702796936,11.94,11.39,2.08,16.63
15.402688026428223,13.81,9.35,2.42,16.85
15.412214040756226,14.7,5.68,1.73,15.85
15.422759056091309,13.88,3.7,0.89,14.39
15.432551860809326,10.66,4.62,1.11,11.67
15.442645072937012,4.4,5.64,2.82,7.68
15.452636003494263,0.04,5.01,4.59,6.79
15.480923175811768,-2.14,4.65,4.93,7.1
15.482110023498535,-1.3,3.52,4.96,6.21
15.485120058059692,0.32,2.42,3.91,4.6
15.492408037185669,1.62,3.42,1.55,4.08
15.502595901489258,3.81,5.01,1.36,6.43
15.513113975524902,7.46,3.78,3.01,8.88
15.523048877716064,10.22,0.95,-0.26,10.26
15.53331184387207,11.12,-1.18,-1.88,11.33
15.54289698600769,11.01,-2.25,-1.56,11.34
15.553667068481445,10.23,-2.77,-1.59,10.71
15.578165054321289,9.43,-2.78,-0.3,9.83
15.579087018966675,8.99,-2.72,2.03,9.6
15.582545042037964,8.93,-3.3,3.12,10.01
15.592674970626831,9.22,-4.28,3.05,10.61
15.603101015090942,9.6,-5.0,2.68,11.15
15.612499952316284,9.65,-5.12,2.27,11.15
15.623694896697998,9.16,-4.65,1.9,10.44
15.632581949234009,8.25,-3.91,1.31,9.22
15.643550872802734,7.46,-3.11,0.26,8.08
15.653317928314209,7.09,-2.03,-1.14,7.46
15.67817211151123,6.92,-0.54,-2.37,7.33
15.679203987121582,6.65,1.15,-2.85,7.32
15.683491945266724,6.06,2.38,-2.69,7.04
15.692842960357666,5.08,2.61,-2.48,6.22
15.702968120574951,3.82,2.15,-2.47,5.03
15.712775945663452,2.61,1.94,-2.45,4.07
15.722970962524414,1.73,2.49,-2.28,3.79
15.732809066772461,1.5,3.7,-2.46,4.68
15.743043899536133,1.77,5.04,-3.38,6.32
15.753664016723633,2.09,6.37,-4.43,8.03
15.77842402458191,1.86,7.83,-5.05,9.5
15.779620170593262,0.59,9.44,-5.33,10.85
15.782966136932373,-1.31,10.92,-5.93,12.49
15.79353404045105,-3.17,11.91,-6.13,13.76
15.803158044815063,-4.97,12.39,-5.95,14.61
15.813608169555664,-6.87,12.38,-5.93,15.35
15.823644161224365,-8.73,11.91,-6.07,15.96
15.833534955978394,-10.39,11.39,-6.45,16.71
15.843577861785889,-12.37,10.7,-7.65,18.05
15.85313892364502,-15.03,9.34,-8.41,19.59
15.876172065734863,-18.59,6.64,-7.6,21.15
15.877043008804321,-21.83,2.61,-7.38,23.19
15.88310694694519,-22.77,-0.07,-4.53,23.21
15.893740177154541,-22.64,-1.21,-2.79,22.84
15.903491020202637,-22.53,-1.55,-6.19,23.41
15.913569927215576,-21.84,-0.23,-7.77,23.18
15.924379825592041,-19.13,-0.93,-3.3,19.43
15.934355974197388,-13.24,3.85,3.95,14.34
15.943894863128662,-6.27,11.0,5.26,13.71
15.953982830047607,1.89,8.85,0.06,9.04
15.978595972061157,11.37,4.94,-8.21,14.86
15.979755878448486,13.67,4.77,-11.43,18.44
15.983278036117554,3.9,6.06,-7.54,10.43
15.993557929992676,-6.95,6.15,-2.7,9.66
16.003459930419922,-14.12,2.19,-0.42,14.29
16.014485836029053,-14.96,-5.04,2.57,15.99
16.024438858032227,-9.64,-2.53,6.3,11.79
16.033681869506836,-4.08,-0.95,6.72,7.91
16.044314861297607,0.36,-3.27,3.39,4.72
16.053869009017944,1.07,-2.53,0.76,2.85
16.077555179595947,-1.04,0.73,-3.65,3.86
16.078428030014038,-0.14,5.7,-13.33,14.49
16.08400297164917,3.16,8.47,-10.02,13.49
16.09381914138794,4.77,0.73,0.96,4.92
16.103726863861084,3.5,-4.87,6.26,8.66
16.11481809616089,-0.27,-1.98,7.56,7.81
16.123826026916504,-2.63,-1.16,2.52,3.82
16.134585857391357,-1.93,0.0,-3.38,3.89
16.144001007080078,-0.25,1.03,-3.26,3.42
16.154322147369385,-0.01,-0.88,0.3,0.92
16.1776180267334,-0.91,-1.52,3.01,3.49
16.178473949432373,-0.7,-0.08,2.89,2.97
16.183922052383423,0.85,0.84,-0.26,1.22
16.194100856781006,1.82,1.57,-2.56,3.51
16.203979015350342,1.37,1.53,-2.24,3.03
16.214967012405396,0.15,0.42,-0.52,0.68
16.224493980407715,-0.96,-0.39,0.83,1.32
16.23416304588318,-1.38,-0.4,1.01,1.75
16.24455690383911,-0.87,-0.18,0.21,0.91
16.256072998046875,0.07,-0.05,-0.3,0.31
16.27925705909729,0.66,0.03,0.02,0.66
16.28018617630005,0.78,-0.19,0.73,1.08
16.284226894378662,0.7,-0.34,1.01,1.27
16.294747829437256,0.61,-0.12,0.81,1.02
16.304167985916138,0.44,0.24,0.2,0.53
16.31519603729248,0.32,0.32,-0.42,0.61
16.324311017990112,0.05,0.41,-0.61,0.73
16.335069179534912,-0.16,0.51,-0.29,0.6
16.344681978225708,0.04,0.67,-0.05,0.67
16.35626196861267,0.3,1.43,1.25,1.92
16.379372119903564,1.45,-0.35,0.06,1.49
16.380234003067017,1.27,-0.18,0.01,1.28
16.384235858917236,0.04,0.74,0.96,1.21
16.394463062286377,0.19,0.48,-0.09,0.52
16.404382944107056,0.01,0.93,-1.09,1.43
16.41446805000305,0.12,1.31,-0.93,1.61
16.424954891204834,0.29,1.55,-0.39,1.62
16.434823036193848,0.39,1.47,-0.01,1.52
16.44490385055542,0.75,1.32,0.37,1.56
16.456763982772827,1.18,1.18,0.43,1.72
16.479635000228882,1.41,0.9,0.56,1.76
16.480801105499268,1.47,0.63,0.25,1.61
16.48456907272339,1.42,0.93,-0.09,1.69
16.494693994522095,1.32,1.59,-0.21,2.07
16.50465488433838,1.37,2.27,-0.46,2.69
16.515685081481934,1.63,2.88,-0.89,3.42
16.52517795562744,1.86,3.27,-1.48,4.04
16.53493905067444,2.13,3.45,-1.93,4.49
16.54537796974182,2.39,3.54,-1.96,4.69
16.557960033416748,2.87,3.79,-1.62,5.02
16.580018043518066,3.34,4.52,-1.39,5.78
16.58090305328369,3.94,6.28,-2.25,7.74
16.5848069190979,4.74,8.67,1.46,9.98
16.59591293334961,6.59,10.01,3.46,12.47
16.60561513900757,9.59,10.8,1.35,14.5
16.614884853363037,12.97,12.39,0.13,17.93
16.625542163848877,16.67,13.34,-1.16,21.38
16.635068893432617,19.76,11.06,-3.7,22.94
16.645267963409424,20.0,6.33,-8.4,22.59
16.657382011413574,12.88,3.04,-6.91,14.92
16.67878293991089,3.43,0.37,6.44,7.3
16.679654121398926,-1.24,1.4,6.03,6.31
16.684826850891113,-4.21,3.84,9.11,10.74
16.695129871368408,-1.5,6.03,7.52,9.75
16.70645809173584,5.52,6.86,-2.05,9.04
16.715057849884033,10.33,6.01,1.18,12.0
16.72571301460266,15.59,4.27,3.0,16.44
16.735275983810425,17.23,0.7,-0.13,17.24
16.745574951171875,14.65,-2.9,-1.09,14.97
16.757910013198853,10.87,-4.29,-1.89,11.83
16.778960943222046,7.77,-4.25,-3.79,9.63
16.779871940612793,5.35,-2.8,-4.43,7.48
16.785599946975708,3.73,-0.82,-2.64,4.64
16.795341968536377,3.3,-0.08,-0.38,3.32
16.806600093841553,3.71,-1.19,0.54,3.93
16.815325021743774,4.35,-3.24,0.18,5.42
16.82607102394104,4.87,-5.24,-0.66,7.18
16.836164951324463,5.24,-6.17,-1.11,8.17
16.845306873321533,5.38,-5.54,-1.3,7.83
16.85717797279358,5.82,-3.59,-1.47,6.99
16.87824296951294,6.71,-1.37,-1.93,7.11
16.8791561126709,7.64,0.36,-2.81,8.14
16.8853120803833,8.22,1.4,-3.39,9.0
16.89539909362793,7.88,1.76,-3.53,8.81
16.907469034194946,6.39,1.65,-3.51,7.47
16.916490077972412,4.2,1.65,-3.61,5.77
16.925783157348633,1.78,2.24,-4.1,4.99
16.936038970947266,-0.58,3.49,-4.94,6.07
16.94654417037964,-2.72,5.33,-5.82,8.34
16.9594988822937,-4.45,7.44,-6.73,10.97
16.979948043823242,-5.84,9.3,-7.94,13.55
16.9808030128479,-6.6,9.3,-6.55,13.15
16.985951900482178,-6.48,7.74,-4.48,11.04
16.996767044067383,-6.57,6.79,-3.45,10.05
17.006266117095947,-6.99,6.77,-2.46,10.03
17.016731023788452,-7.46,7.08,-2.17,10.51
17.0257568359375,-8.13,6.93,-2.62,10.99
17.036386013031006,-8.95,6.18,-3.7,11.48
17.04642391204834,-9.5,5.02,-5.37,12.01
17.057085037231445,-9.64,3.69,-4.74,11.35
17.080405950546265,-10.23,2.42,-3.44,11.06
17.08162784576416,-11.64,1.35,-2.45,11.97
17.085741996765137,-13.14,0.79,-2.06,13.32
17.09603214263916,-13.85,0.88,-1.54,13.96
17.10782289505005,-13.55,0.96,-1.53,13.66
17.11606001853943,-12.91,0.5,-2.39,13.13
17.12615704536438,-12.78,0.02,-3.06,13.14
17.136873960494995,-13.24,-0.13,-2.91,13.55
17.146528959274292,-13.43,-0.4,-1.62,13.53
17.156723976135254,-12.95,-1.81,2.4,13.29
17.18150305747986,-8.87,-0.58,8.8,12.5
17.182751178741455,-4.12,6.03,4.6,8.63
17.186094999313354,-0.94,6.94,3.03,7.63
17.196202993392944,1.34,5.74,-0.94,5.96
17.20623016357422,3.84,5.46,-7.82,10.28
17.216933012008667,1.59,5.72,-10.86,12.37
17.22659397125244,-3.48,4.96,2.89,6.71
17.2363920211792,-6.42,3.55,0.1,7.33
17.246701955795288,-6.36,0.33,-1.04,6.45
17.256680011749268,-7.35,-1.49,0.68,7.53
17.282465934753418,-9.2,-0.89,0.95,9.29
17.283679008483887,-8.44,0.58,-0.12,8.46
17.286241054534912,-4.31,0.11,-1.22,4.48
17.297410011291504,0.43,-1.54,-2.55,3.0
17.306432962417603,3.55,-0.1,-3.84,5.23
17.316390991210938,3.79,2.49,-2.67,5.26
17.327522039413452,2.65,1.89,0.77,3.34
17.336670875549316,2.75,-0.58,3.53,4.51
17.347023010253906,2.78,-1.47,4.14,5.19
17.35676097869873,0.85,-1.0,1.9,2.3
17.381224155426025,-2.05,-0.33,-1.17,2.38
17.382442951202393,-3.56,0.45,-2.47,4.35
17.386526107788086,-3.07,0.12,-1.36,3.35
17.39665412902832,-1.63,-0.73,0.43,1.83
17.406595945358276,-0.21,-0.7,1.45,1.62
17.416637897491455,1.11,-0.06,1.16,1.6
17.42662811279297,2.15,0.45,0.23,2.2
17.43788504600525,2.32,0.55,-0.23,2.39
17.44717001914978,1.51,0.29,-0.07,1.53
17.456961154937744,0.14,0.0,0.14,0.19
17.482455015182495,-1.09,-0.06,-0.02,1.09
17.48367404937744,-1.58,-0.13,-0.36,1.62
17.486722946166992,-1.22,-0.24,-0.48,1.33
17.496781826019287,-0.44,-0.14,-0.13,0.47
17.507549047470093,0.39,-0.04,0.24,0.45
17.51730704307556,1.02,0.21,0.23,1.06
17.527246952056885,1.34,0.45,0.12,1.41
17.537353992462158,1.17,0.47,-0.1,1.26
17.54734182357788,0.5,0.32,-0.21,0.62
17.55704689025879,-0.18,0.16,-0.23,0.33
17.583454132080078,-0.49,0.2,-0.11,0.54
17.58465003967285,-0.15,0.25,-0.09,0.3
17.58714008331299,0.43,0.41,-0.24,0.64
17.59701704978943,0.72,0.58,-0.25,0.95
17.607887983322144,0.87,0.57,-0.09,1.04
17.61743998527527,0.93,0.35,-0.01,0.99
17.627609968185425,0.44,0.37,0.02,0.57
17.63731813430786,-0.09,0.35,0.28,0.45
17.64780902862549,0.74,0.02,0.78,1.07
17.65745496749878,0.84,0.43,0.67,1.15
17.682893991470337,-0.08,1.01,0.48,1.12
17.6841139793396,1.85,0.74,0.55,2.06
17.687127113342285,1.3,1.49,0.08,1.97
17.6971378326416,0.13,1.48,-0.47,1.55
17.707813024520874,0.75,1.54,-0.49,1.78
17.717358112335205,0.77,1.9,-0.67,2.15
17.728436946868896,0.54,2.07,-0.03,2.13
17.737382888793945,1.01,2.78,0.56,3.01
17.747743129730225,2.4,2.96,0.62,3.86
17.757532119750977,3.08,3.39,0.94,4.67
17.77530598640442,3.07,3.82,0.95,4.99
17.783688068389893,3.17,4.31,0.89,5.42
17.787431001663208,3.5,4.93,0.82,6.1
17.79734516143799,3.97,6.38,0.07,7.51
17.80800485610962,4.31,8.13,0.29,9.2
17.818814992904663,5.7,9.06,2.69,11.03
17.827961921691895,8.44,9.63,2.38,13.02
17.837533950805664,10.43,10.42,2.45,14.94
17.848078966140747,11.36,11.21,3.23,16.28
17.857665061950684,12.86,9.85,2.72,16.42
17.875273942947388,14.68,7.5,2.82,16.72
17.883538961410522,15.27,5.42,2.38,16.37
17.887885093688965,13.21,4.21,2.06,14.01
17.897716999053955,9.24,2.66,3.69,10.29
17.908166885375977,5.28,2.55,5.61,8.11
17.918747901916504,2.66,2.94,5.19,6.53
17.927759170532227,0.88,3.45,3.31,4.86
17.938480854034424,-0.1,4.19,2.57,4.91
17.94830298423767,-0.26,5.73,1.06,5.83
17.95816707611084,1.17,7.26,-1.78,7.56
17.975371837615967,5.51,5.48,1.23,7.86
17.983690977096558,9.43,1.18,-2.29,9.77
17.987985134124756,10.51,-2.78,-5.17,12.03
17.997878074645996,9.6,-4.32,-4.49,11.44
18.00898790359497,8.63,-4.05,-2.17,9.77
18.01795196533203,7.52,-3.83,-0.04,8.43
18.030081033706665,7.11,-3.3,2.0,8.08
18.038002967834473,7.69,-3.68,2.63,8.92
18.04847502708435,9.19,-5.15,2.43,10.81
18.058150053024292,11.23,-6.47,1.54,13.05
18.076887130737305,13.13,-6.51,0.4,14.66
18.086048126220703,13.74,-5.38,-0.44,14.76
18.088151931762695,12.83,-3.59,-1.4,13.39
18.098122119903564,11.29,-1.68,-3.17,11.84
18.108703136444092,9.77,0.61,-5.11,11.04
18.11885094642639,8.05,3.13,-5.89,10.45
18.130588054656982,6.25,4.76,-6.01,9.89
18.138434886932373,4.69,4.64,-6.08,8.97
18.148725032806396,3.35,3.33,-6.06,7.68
18.158362865447998,2.05,2.3,-5.7,6.47
18.17618989944458,0.85,2.41,-5.09,5.69
18.18504810333252,-0.01,3.64,-4.54,5.81
18.188243865966797,-0.22,5.44,-4.58,7.11
18.198201179504395,0.28,7.3,-5.14,8.93
18.209367990493774,1.0,8.69,-6.09,10.65
18.218435049057007,1.13,9.36,-6.64,11.53
18.22959804534912,0.06,9.52,-6.48,11.51
18.23887586593628,-1.94,9.45,-5.84,11.27
18.24903702735901,-3.94,9.48,-5.87,11.82
18.259230136871338,-5.18,9.42,-6.38,12.5
18.27494192123413,-6.11,8.97,-7.15,12.99
18.284549951553345,-7.59,8.26,-8.0,13.77
18.28881001472473,-9.24,7.82,-8.68,14.89
18.29859685897827,-10.53,7.6,-8.41,15.47
18.308629989624023,-11.57,7.27,-7.61,15.64
18.31855010986328,-12.62,6.53,-7.36,16.0
18.330010890960693,-13.73,5.16,-7.45,16.45
18.338633060455322,-15.04,3.23,-7.18,16.97
18.3501558303833,-17.27,1.25,-6.76,18.58
18.358741998672485,-20.31,-0.21,-6.21,21.23
18.376975059509277,-22.36,-0.66,-5.89,23.13
18.38570499420166,-22.43,-1.08,-5.45,23.1
18.388678073883057,-20.31,-1.12,-3.19,20.58
18.398725032806396,-14.01,5.11,3.58,15.33
18.40930199623108,-4.76,9.34,4.29,11.32
18.418903827667236,8.12,8.29,-1.36,11.68
18.43195390701294,20.07,4.92,-8.59,22.37
18.43911099433899,17.97,4.11,-13.23,22.69
18.449278831481934,4.9,5.58,-7.51,10.56
18.45935297012329,-6.42,6.82,1.51,9.48
18.477854013442993,-13.83,1.85,2.66,14.2
18.487215995788574,-11.94,-5.0,3.2,13.33
18.488952159881592,-5.68,-3.73,5.82,8.94
18.499089002609253,-1.34,-2.84,5.75,6.55
18.509058952331543,0.81,-3.37,2.46,4.25
18.520056009292603,-0.94,-2.99,0.69,3.2
18.532078981399536,-4.26,0.06,0.21,4.26
18.539026975631714,-6.04,2.98,-3.02,7.38
18.54950499534607,-3.91,5.55,-11.13,13.03
18.559524059295654,2.02,8.2,-12.22,14.85
18.576866149902344,6.35,4.94,-4.09,9.02
18.578978061676025,7.07,-3.45,1.34,7.98
18.589510917663574,3.14,-5.73,5.07,8.27
18.599653005599976,-2.22,-0.88,8.31,8.64
18.609321117401123,-4.3,-1.02,5.76,7.26
18.619230031967163,-2.23,-1.35,-0.24,2.61
18.632526874542236,0.81,0.83,-4.5,4.64
18.63919496536255,1.19,0.95,-3.71,4.01
18.649660110473633,-0.52,-0.34,0.18,0.64
18.659532070159912,-1.43,-0.24,2.5,2.89
18.67701816558838,-0.29,0.41,1.58,1.65
18.679272174835205,1.57,0.79,-1.29,2.18
18.68951416015625,2.09,1.19,-2.55,3.5
18.699462890625,1.01,0.66,-1.1,1.63
18.70950984954834,-0.39,-0.46,1.03,1.19
18.719439029693604,-1.18,-1.04,2.04,2.57
18.731523990631104,-1.08,-0.96,1.48,2.06
18.7393741607666,-0.36,-0.3,0.22,0.51
18.750327110290527,0.27,0.39,-0.49,0.68
18.75977396965027,0.24,0.16,-0.64,0.7
18.777493000030518,-0.1,0.1,-0.26,0.29
18.779513835906982,-0.22,-0.07,0.19,0.29
18.789641857147217,-0.3,-0.11,0.26,0.41
18.799638032913208,-0.25,0.14,-0.19,0.34
18.80973196029663,0.13,0.49,-0.69,0.85
18.819605827331543,0.58,0.61,-0.65,1.06
18.829771995544434,0.7,0.27,-0.08,0.75
18.839722156524658,0.73,0.11,0.38,0.83
18.850133895874023,0.84,0.28,0.38,0.96
18.860724925994873,0.92,0.5,0.12,1.05
18.877506971359253,1.03,0.32,0.34,1.13
18.879733085632324,1.0,0.04,0.7,1.22
18.890331029891968,0.8,0.23,0.79,1.14
18.89995002746582,0.83,0.31,0.52,1.02
18.910061836242676,1.04,0.36,0.49,1.2
18.9206280708313,1.08,0.23,0.91,1.43
18.930541038513184,1.05,0.41,1.69,2.03
18.940239906311035,1.37,0.09,1.45,1.99
18.950254917144775,1.67,0.3,1.62,2.34
18.960093021392822,1.46,0.7,1.6,2.27
18.978028059005737,1.58,1.43,0.92,2.32
18.979890823364258,1.82,2.17,0.33,2.85
18.99051594734192,1.68,2.71,-0.04,3.18
19.00014305114746,1.63,3.09,-0.4,3.51
19.010191917419434,2.02,3.35,-0.63,3.96
19.02023696899414,2.36,3.92,-0.75,4.63
19.031827926635742,2.68,4.65,-1.03,5.46
19.039981842041016,3.15,5.55,-1.5,6.55
19.05010414123535,3.61,7.2,-2.53,8.44
19.06004285812378,3.91,9.21,-0.71,10.03
19.076637983322144,5.45,10.18,2.46,11.8
19.08046817779541,8.33,10.55,1.22,13.49
19.09102201461792,10.61,11.66,0.89,15.78
19.100417137145996,12.58,13.42,1.54,18.45
19.11057710647583,14.67,14.5,0.56,20.63
19.121150970458984,16.46,13.35,-0.71,21.2
19.1302490234375,16.48,9.27,0.62,18.91
19.14027214050293,13.72,2.71,3.87,14.51
19.150360107421875,10.06,-1.52,6.28,11.95
19.160948038101196,6.43,0.1,7.39,9.79
19.17782688140869,2.21,4.04,6.43,7.9
19.181469917297363,-3.02,7.5,1.17,8.16
19.190904140472412,-6.64,9.52,-5.84,12.99
19.201087951660156,-2.6,7.64,1.66,8.23
19.210644006729126,5.45,3.18,0.45,6.32
19.22056007385254,11.49,-2.08,-3.13,12.08
19.23261785507202,12.95,-5.52,-2.85,14.36
19.241310119628906,11.26,-5.29,-1.91,12.58
19.251872062683105,9.93,-3.85,-1.74,10.79
19.26122498512268,9.85,-1.77,-1.0,10.05
19.27888584136963,10.64,-0.54,-0.81,10.68
19.28057289123535,12.13,-1.51,-0.62,12.23
19.29094886779785,13.55,-3.82,-0.8,14.1
19.300616979599,14.3,-5.59,-0.86,15.37
19.311372995376587,13.66,-6.24,-1.2,15.06
19.32193088531494,11.71,-5.93,-1.55,13.21
19.331951141357422,9.42,-5.14,-2.08,10.93
19.34082794189453,7.84,-4.2,-3.02,9.39
19.351552963256836,7.23,-3.03,-4.16,8.87
19.361937046051025,7.22,-1.65,-5.07,8.97
19.377779006958008,7.33,-0.4,-5.4,9.11
19.380892038345337,7.29,0.26,-5.23,8.97
19.39119005203247,7.04,0.23,-4.73,8.48
19.40088200569153,6.62,-0.07,-3.86,7.66
19.411059856414795,6.08,0.04,-2.85,6.71
19.420988082885742,5.57,0.9,-2.13,6.03
19.43185806274414,5.33,2.44,-1.92,6.16
19.441478967666626,5.22,4.39,-1.89,7.07
19.452571868896484,4.96,6.55,-1.87,8.42
19.461474895477295,4.21,8.91,-1.54,9.97
19.47957992553711,2.62,11.57,-1.5,11.95
19.481127977371216,0.03,14.34,-1.36,14.4
19.491551876068115,-3.47,16.73,-1.37,17.14
19.50122594833374,-7.79,18.56,-2.84,20.32
19.51162815093994,-11.87,18.51,-2.99,22.19
19.52170991897583,-15.39,16.68,-1.48,22.74
19.532483100891113,-20.04,15.36,-1.96,25.32
19.54269003868103,-25.24,13.08,-4.59,28.79
19.551464080810547,-27.72,5.04,-3.84,28.43
19.56183695793152,-29.26,-8.02,5.32,30.8
19.577805995941162,-29.16,-10.93,13.49,33.93
19.581708908081055,-30.37,-1.96,1.51,30.47
19.591812133789062,-32.59,1.24,-6.31,33.21
19.6018009185791,-26.55,0.71,-2.8,26.7
19.612179040908813,-16.76,6.68,4.98,18.71
19.621413946151733,-9.24,9.79,6.36,14.88
19.631417989730835,-3.29,7.72,4.51,9.52
19.642457962036133,7.64,8.02,-3.56,11.63
19.651461124420166,14.9,5.66,-26.99,31.34
19.661521911621094,7.07,0.81,2.25,7.46
19.67882204055786,-3.52,3.1,2.71,5.41
19.68149709701538,-9.22,5.6,0.35,10.79
19.691990852355957,-13.76,6.64,1.62,15.36
19.701592922210693,-15.33,2.35,-1.69,15.6
19.712775945663452,-9.73,-2.45,-0.45,10.04
19.721632957458496,-4.68,-2.32,0.6,5.25
19.73237705230713,-0.26,-0.74,-0.72,1.06
19.741568088531494,2.82,-1.07,-1.68,3.45
19.75231695175171,1.91,-2.31,-3.92,4.93
19.7619309425354,0.17,0.0,-7.18,7.18
19.778743982315063,-0.5,5.28,-0.89,5.37
19.7817599773407,0.97,3.54,6.59,7.54
19.79220485687256,5.25,-5.91,9.22,12.14
19.801899909973145,7.05,-6.05,4.95,10.52
19.812099933624268,4.5,0.56,0.32,4.54
19.821902990341187,0.28,1.87,-3.43,3.91
19.832982063293457,-3.67,0.58,-3.84,5.34
19.842698097229004,-4.99,0.17,0.01,4.99
19.854597091674805,-3.26,-1.24,2.94,4.56
19.86225199699402,-0.79,-1.73,1.39,2.35
19.88109016418457,0.97,0.37,-1.1,1.51
19.88353705406189,2.5,1.49,-0.92,3.05
19.89217185974121,3.42,0.41,1.14,3.62
19.903181076049805,2.77,-0.56,1.27,3.09
19.912231922149658,1.02,-0.02,0.25,1.05
19.92203712463379,-0.57,0.05,0.46,0.73
19.93311905860901,-0.94,-0.31,0.63,1.17
19.942325115203857,0.0,0.09,0.38,0.39
19.954560041427612,0.6,0.51,-0.13,0.79
19.962337970733643,0.99,0.56,0.11,1.14
19.98096513748169,1.07,0.44,0.18,1.17
19.983296871185303,0.75,0.51,-0.11,0.91
19.99291706085205,0.28,0.53,-0.02,0.59
20.003745079040527,0.06,0.38,0.08,0.39
20.013484001159668,-0.15,0.39,-0.05,0.42
20.0222270488739,-0.47,0.51,-0.13,0.7
20.033301830291748,-0.34,0.49,-0.09,0.6
20.04251194000244,0.03,0.5,0.0,0.5
20.055141925811768,0.37,0.54,0.15,0.67
20.062921047210693,0.61,0.45,0.54,0.93
20.079993963241577,0.72,0.42,0.9,1.22
20.082371950149536,0.72,0.55,0.93,1.29
20.09323787689209,0.77,0.63,0.74,1.23
20.103994846343994,0.8,0.67,0.37,1.1
20.113726139068604,0.74,0.8,0.0,1.08
20.122448921203613,0.71,0.98,-0.46,1.29
20.133502960205078,0.73,1.2,-1.04,1.74
20.143106937408447,0.86,1.65,-1.15,2.18
20.156033039093018,1.21,2.37,-0.75,2.76
20.163218021392822,1.86,2.94,-0.22,3.48
20.180076122283936,2.62,3.42,0.4,4.32
20.18263816833496,3.39,4.08,0.95,5.38
20.193400859832764,4.08,5.54,0.73,6.91
20.204453945159912,4.63,8.17,0.92,9.43
20.213896989822388,5.59,10.44,3.89,12.46
20.222702980041504,7.85,11.63,3.38,14.43
20.233622074127197,10.22,12.8,2.22,16.52
20.243232011795044,12.12,15.6,2.9,19.96
20.255753993988037,14.42,16.91,2.42,22.35
20.26335382461548,16.54,13.72,2.27,21.6
20.27984094619751,17.06,7.79,6.14,19.73
20.282980918884277,15.27,2.85,6.36,16.78
20.29326295852661,12.81,1.46,6.47,14.42
20.304922103881836,8.51,3.01,9.7,13.25
20.314094066619873,3.94,5.23,9.08,11.19
20.322944164276123,0.49,5.96,4.2,7.3
20.33438014984131,-1.91,6.27,0.12,6.55
20.343472003936768,-3.18,9.02,-4.09,10.4
20.354801177978516,1.35,8.94,1.43,9.15
20.36316704750061,8.14,2.87,-0.72,8.66
20.380704879760742,11.25,-3.82,-5.21,12.97
20.382872104644775,11.1,-6.33,-3.14,13.15
20.393821001052856,9.48,-6.01,0.28,11.22
20.403538942337036,8.29,-4.67,2.88,9.94
20.413249015808105,8.47,-3.47,4.59,10.23
20.423128128051758,10.32,-3.76,5.67,12.36
20.433268070220947,12.18,-5.07,3.42,13.62
20.444061994552612,13.62,-5.47,0.37,14.68
20.453606128692627,14.18,-4.74,-1.78,15.05
20.46339201927185,13.01,-3.51,-2.98,13.8
20.4805269241333,10.52,-2.61,-3.99,11.55
20.48310899734497,7.82,-2.22,-5.41,9.76
20.493420124053955,5.62,-1.62,-6.71,8.9
20.50516700744629,3.95,-0.62,-7.3,8.32
20.513558864593506,2.87,0.13,-7.59,8.11
20.523280143737793,2.52,0.09,-7.97,8.35
20.534507989883423,2.84,-0.58,-8.12,8.62
20.544302940368652,3.4,-1.25,-7.93,8.71
20.553959846496582,3.84,-1.44,-7.44,8.49
20.563715934753418,4.07,-0.98,-6.78,7.96
20.581020832061768,4.07,0.01,-6.29,7.49
20.583352088928223,3.81,1.18,-5.95,7.16
20.593677043914795,3.09,2.21,-5.57,6.74
20.60402011871338,1.79,3.14,-5.06,6.21
20.614806175231934,-0.01,3.97,-4.28,5.83
20.623569011688232,-2.13,4.8,-3.16,6.12
20.634109020233154,-4.22,5.86,-1.83,7.44
20.644464015960693,-6.01,7.25,-0.54,9.43
20.65451717376709,-7.77,8.67,0.34,11.64
20.66387104988098,-9.83,10.03,0.53,14.05
20.68132996559143,-12.11,11.11,0.35,16.43
20.683727979660034,-14.38,11.15,0.33,18.19
20.69494390487671,-15.86,9.89,1.03,18.71
20.70416784286499,-15.7,7.81,2.25,17.67
20.71395492553711,-14.41,4.98,2.9,15.51
20.723772048950195,-13.12,2.34,1.13,13.37
20.733970165252686,-11.97,1.33,0.12,12.04
20.743844985961914,-11.51,1.36,1.47,11.68
20.75466012954712,-12.67,0.63,5.02,13.64
20.764381885528564,-14.97,0.32,6.15,16.18
20.7818820476532,-16.39,1.5,4.77,17.13
20.783817052841187,-17.75,1.52,1.01,17.84
20.795834064483643,-18.83,-0.16,-2.5,18.99
20.803948879241943,-16.22,-0.6,2.05,16.36
20.81516695022583,-5.27,4.47,7.63,10.29
20.824058055877686,5.8,6.74,4.56,9.99
20.834834098815918,12.93,6.21,1.77,14.45
20.84468984603882,10.99,6.43,-18.78,22.68
20.854498863220215,1.35,7.57,-8.24,11.27
20.864662170410156,-5.45,8.06,5.1,10.98
20.881722927093506,-6.31,2.45,-0.56,6.79
20.884035110473633,-5.46,-2.11,3.89,7.02
20.896120071411133,-6.7,-2.05,5.19,8.71
20.904181003570557,-9.78,-0.17,1.21,9.85
20.91494083404541,-12.45,1.25,1.57,12.61
20.92437195777893,-10.94,0.69,-0.59,10.97
20.935086965560913,-5.83,-1.27,-0.76,6.01
20.944655895233154,0.23,-3.1,-0.66,3.17
20.954461097717285,4.45,-2.83,-0.17,5.27
20.96500015258789,5.16,1.02,2.26,5.72
20.982378005981445,4.41,2.7,3.4,6.18
20.984323978424072,4.32,-0.36,1.67,4.64
20.996499061584473,3.47,-1.4,1.19,3.92
21.00437903404236,0.91,-0.85,0.78,1.46
21.014638900756836,-3.5,-0.9,-0.53,3.65
21.02596616744995,-5.31,-0.22,-1.29,5.46
21.035231113433838,-4.81,0.29,-1.0,4.92
21.044929027557373,-1.3,-0.63,0.05,1.44
21.054769039154053,1.38,-0.14,-0.1,1.39
21.064734935760498,1.79,1.11,0.5,2.16
21.0816650390625,3.33,0.38,0.21,3.35
21.08465600013733,3.44,0.27,0.09,3.45
21.09636116027832,-0.3,0.24,0.15,0.41
21.105276107788086,-1.36,-0.48,-0.01,1.44
21.114842891693115,-0.2,-0.43,0.42,0.63
21.124703884124756,-1.05,0.19,0.14,1.07
21.134783029556274,-0.95,-0.03,0.1,0.95
21.145781993865967,0.85,0.09,0.31,0.9
21.155436992645264,2.18,0.2,0.88,2.35
21.165340900421143,0.94,0.43,0.14,1.04
21.181679010391235,-0.7,0.66,-0.21,0.98
21.184977054595947,0.27,0.15,-0.17,0.35
21.19752597808838,0.88,0.39,0.2,0.98
21.206026077270508,0.3,0.57,0.17,0.66
21.215137004852295,-0.37,0.56,-0.24,0.71
21.224828004837036,-0.07,0.67,-0.23,0.71
21.236753940582275,0.6,0.75,0.02,0.96
21.245497941970825,0.72,0.87,0.09,1.13
21.25522804260254,0.55,1.0,-0.1,1.14
21.265499114990234,0.61,1.4,-0.01,1.52
21.284389972686768,0.89,1.84,0.8,2.19
21.28685188293457,1.33,1.68,0.11,2.14
21.2981059551239,1.59,2.24,-0.47,2.78
21.305032968521118,1.75,2.51,-1.45,3.38
21.315346002578735,1.7,2.64,-2.54,4.03
21.325037002563477,1.33,2.99,-1.93,3.79
21.335988998413086,1.41,3.52,-1.11,3.95
21.34560203552246,2.12,4.26,-0.37,4.77
21.355513095855713,2.86,5.13,0.3,5.88
21.365576028823853,3.83,5.89,1.12,7.11
21.38302707672119,5.18,6.84,2.14,8.84
21.385076999664307,6.9,7.88,2.92,10.87
21.39827585220337,8.54,9.31,2.61,12.9
21.405252933502197,9.81,11.76,1.21,15.36
21.41575813293457,11.06,14.53,2.13,18.38
21.425382137298584,13.39,15.82,1.8,20.8
21.43583583831787,16.41,13.76,-0.8,21.43
21.44540500640869,18.8,7.55,-2.42,20.4
21.455440998077393,17.63,0.85,-0.38,17.65
21.465466022491455,12.43,-2.14,0.16,12.61
21.482050895690918,4.71,-1.25,-0.68,4.92
21.486286163330078,-1.0,-0.55,4.56,4.7
21.499045848846436,-3.09,-0.24,4.91,5.8
21.505491018295288,-3.44,0.06,3.44,4.86
21.51573395729065,-2.7,0.88,3.14,4.23
21.528029918670654,-1.21,2.72,3.79,4.81
21.53612494468689,0.79,4.23,6.26,7.59
21.546077966690063,6.13,2.89,5.04,8.44
21.55647611618042,12.78,-2.16,1.07,13.0
21.56613302230835,15.22,-7.45,0.72,16.96
21.58630895614624,13.76,-8.67,1.46,16.32
21.588266849517822,11.69,-6.59,3.27,13.81
21.59919786453247,10.31,-3.81,5.83,12.44
21.60579490661621,9.99,-0.75,7.76,12.67
21.616962909698486,10.69,0.82,7.24,12.93
21.6270489692688,12.3,0.62,5.9,13.65
21.63644003868103,13.43,-0.01,5.53,14.52
21.64587903022766,12.86,-0.05,6.92,14.6
21.65739393234253,10.54,0.32,9.07,13.9
21.6665358543396,7.27,0.53,10.55,12.82
21.685053825378418,4.14,0.93,11.26,12.03
21.68734097480774,1.61,2.07,11.55,11.84
21.69924783706665,-0.17,3.72,11.32,11.91
21.7070209980011,-1.21,5.72,10.32,11.86
21.716161012649536,-1.74,7.26,8.82,11.55
21.72753405570984,-1.51,6.7,11.25,13.18
21.736135959625244,-0.86,4.73,12.27,13.17
21.74606204032898,-0.63,3.25,12.26,12.69
21.75701594352722,-0.66,3.08,12.6,12.98
21.766370058059692,-0.72,3.84,13.16,13.72
21.785101890563965,-0.56,4.59,13.51,14.27
21.787382125854492,-0.08,5.02,13.27,14.18
21.799817085266113,0.44,5.35,12.73,13.81
21.806180000305176,0.48,5.86,11.92,13.29
21.817441940307617,0.08,6.11,12.52,13.93
21.827911853790283,-0.39,5.94,12.8,14.11
21.836318969726562,-1.19,5.65,12.29,13.57
21.846696853637695,-2.4,5.76,11.16,12.78
21.856706142425537,-3.85,6.3,9.48,12.01
21.866785049438477,-5.46,6.69,8.13,11.86
21.886029958724976,-6.96,6.58,4.9,10.75
21.88824987411499,-7.63,6.06,-2.01,9.94
21.90060806274414,-8.12,5.25,-1.61,9.8
21.90633797645569,-9.4,4.41,4.37,11.26
21.917623043060303,-11.23,3.41,5.18,12.82
21.92737603187561,-12.76,2.77,3.96,13.64
21.93815803527832,-13.06,3.36,3.22,13.86
21.947044849395752,-12.59,4.06,2.7,13.5
21.957162857055664,-12.99,3.25,0.81,13.41
21.966583967208862,-14.78,1.91,0.32,14.9
21.98598003387451,-17.06,0.59,1.57,17.14
21.988171100616455,-18.3,0.15,2.47,18.46
22.000386953353882,-16.96,0.99,2.69,17.2
22.006500959396362,-13.74,1.68,1.85,13.96
22.016770839691162,-11.22,1.37,0.4,11.31
22.026669025421143,-11.04,0.53,-1.03,11.1
22.0367431640625,-11.78,0.37,-2.56,12.06
22.04760503768921,-11.79,2.86,-4.52,12.94
22.05750608444214,-12.31,8.83,-5.03,15.96
22.0671968460083,-9.12,12.26,-4.55,15.94
22.086299896240234,3.7,8.18,-1.64,9.12
22.088478088378906,18.82,1.08,-1.0,18.87
22.101396083831787,21.39,-3.79,-1.13,21.75
22.106884956359863,4.02,0.81,3.89,5.65
22.117967128753662,-15.95,7.76,5.93,18.7
22.12692403793335,-24.87,5.56,4.34,25.85
22.13805103302002,-15.07,-5.29,5.42,16.86
22.147346019744873,0.87,-8.55,2.16,8.86
22.15702199935913,8.41,-4.08,1.62,9.48
22.16741394996643,7.04,0.85,-0.8,7.13
22.186115980148315,2.51,4.09,-0.93,4.88
22.18836498260498,-1.86,3.46,0.55,3.96
22.201826095581055,-3.89,-0.87,1.3,4.19
22.207026958465576,-3.16,-3.14,0.42,4.47
22.217234134674072,-1.21,-1.44,0.07,1.88
22.22709608078003,0.08,0.81,0.23,0.84
22.237418174743652,0.09,1.41,-0.35,1.45
22.24720597267151,-0.34,0.66,-0.84,1.12
22.25868797302246,-0.22,-0.27,-0.18,0.39
22.26756191253662,0.05,-0.67,0.24,0.71
22.28591799736023,-0.07,-0.38,-0.11,0.4
22.288174152374268,-0.43,0.36,-0.41,0.69
22.301810026168823,-0.47,1.0,-0.43,1.18
22.30715298652649,-0.11,0.91,-0.11,0.92
22.317456007003784,0.18,-0.05,0.54,0.57
22.327259063720703,0.28,-1.2,1.45,1.9
22.3385009765625,0.56,-1.65,2.32,2.9
22.347331047058105,0.67,-1.17,1.78,2.23
22.358309030532837,0.49,-0.09,-0.1,0.5
22.367887020111084,0.26,1.16,-1.64,2.02
22.38643789291382,-0.08,1.8,-2.89,3.4
22.388657093048096,-0.33,1.68,-2.47,3.0
22.402263164520264,-0.25,1.09,-1.06,1.54
22.40731716156006,0.07,0.39,0.07,0.4
22.417631149291992,0.41,-0.01,0.41,0.57
22.427989959716797,0.59,-0.03,0.57,0.82
22.4387149810791,0.73,0.21,0.39,0.85
22.448062896728516,0.58,0.45,0.23,0.76
22.45798397064209,0.26,0.54,0.16,0.62
22.468050003051758,0.09,0.63,-0.32,0.71
22.487125873565674,0.0,0.92,-0.8,1.21
22.489300966262817,-0.06,1.18,-1.19,1.67
22.503296852111816,0.04,1.33,-1.34,1.88
22.507630825042725,0.32,1.57,-0.99,1.88
22.51786494255066,0.78,1.96,-1.0,2.33
22.52841305732727,1.14,2.51,-1.22,3.01
22.538458824157715,1.45,3.32,-0.7,3.68
22.548243045806885,2.15,4.01,-0.21,4.55
22.55803894996643,3.14,4.66,-0.55,5.64
22.568242073059082,3.93,5.42,-1.39,6.83
22.58916401863098,4.61,6.71,-1.77,8.33
22.590391159057617,5.13,9.8,-1.07,11.11
22.60352897644043,6.19,13.36,0.03,14.72
22.60840606689453,8.94,14.98,0.84,17.46
22.618596076965332,12.91,13.49,0.91,18.69
22.627990007400513,15.58,9.62,0.95,18.33
22.638170957565308,14.48,5.97,1.73,15.75
22.64803409576416,11.19,3.41,2.37,11.93
22.659167051315308,8.66,1.19,3.72,9.5
22.667975902557373,6.37,-1.26,4.73,8.03
22.6873619556427,3.71,-2.25,5.03,6.64
22.689576148986816,1.22,-1.84,4.79,5.27
22.70405602455139,-1.17,-1.4,3.26,3.73
22.70874786376953,-2.19,-1.69,1.4,3.1
22.718265056610107,0.46,-1.29,3.35,3.61
22.728201866149902,5.84,-1.43,4.53,7.52
22.738340854644775,10.68,-3.12,3.89,11.78
22.7482271194458,12.06,-5.09,4.6,13.87
22.759888172149658,10.6,-5.3,6.27,13.4
22.768712997436523,8.92,-4.29,8.16,12.82
22.79463505744934,8.33,-2.84,9.63,13.04
22.79583501815796,8.44,-1.89,9.0,12.48
22.798251152038574,9.01,-1.12,7.77,11.95
22.80924415588379,9.01,-0.02,8.32,12.26
22.818845987319946,8.02,0.76,9.92,12.77
22.828371047973633,6.22,0.9,11.21,12.85
22.83926010131836,3.8,0.72,11.61,12.23
22.850242137908936,0.96,0.85,11.33,11.4
22.8588650226593,-2.26,1.55,10.77,11.11
22.869175910949707,-5.32,2.28,10.2,11.72
22.890163898468018,-7.52,2.65,10.06,12.83
22.89136505126953,-7.89,2.15,9.85,12.8
22.904847145080566,-6.57,1.02,9.95,11.96
22.908565044403076,-5.0,0.12,9.58,10.8
22.91867995262146,-4.04,-0.12,8.95,9.82
22.929044008255005,-3.94,0.57,8.9,9.74
22.940196990966797,-4.35,1.8,9.21,10.34
22.95091199874878,-4.74,2.57,9.57,10.98
22.95916986465454,-4.71,2.47,9.72,11.07
22.969287872314453,-4.31,1.91,9.58,10.67
22.995058059692383,-3.72,1.71,9.68,10.51
22.996175050735474,-3.02,1.8,9.76,10.37
22.998694896697998,-2.25,1.61,9.4,9.79
23.009835958480835,-1.38,1.36,8.85,9.05
23.01931405067444,-0.43,1.4,8.3,8.42
23.028831958770752,0.77,0.83,10.44,10.5
23.03892183303833,2.14,-0.29,11.72,11.91
23.051419973373413,3.26,-1.34,11.97,12.47
23.05908489227295,3.95,-1.54,11.76,12.5
23.069282054901123,4.09,-1.01,11.28,12.04
23.094084978103638,3.59,-0.29,10.61,11.2
23.095114946365356,2.64,0.31,9.69,10.04
23.0987811088562,1.58,0.64,9.08,9.23
23.109102964401245,0.67,0.64,8.85,8.89
23.119144916534424,-0.05,0.51,8.7,8.71
23.12904405593872,-0.64,0.46,8.47,8.5
23.13911008834839,-1.06,0.66,7.93,8.02
23.151355028152466,-1.34,1.12,7.27,7.47
23.15948796272278,-1.62,1.59,6.92,7.28
23.169652938842773,-1.87,1.83,6.23,6.75
23.194878101348877,-1.94,1.86,5.26,5.9
23.19576597213745,-1.79,1.64,4.08,4.74
23.200161933898926,-1.48,1.37,3.46,4.0
23.209404945373535,-1.35,1.34,3.09,3.62
23.21940517425537,-1.72,1.49,2.02,3.04
23.230329990386963,-2.72,1.94,1.11,3.52
23.24020290374756,-3.86,2.67,0.48,4.71
23.25188398361206,-4.73,3.35,-0.53,5.82
23.259707927703857,-5.53,3.68,-2.03,6.94
23.269885063171387,-6.39,3.47,-3.68,8.14
23.295444011688232,-7.57,3.06,-4.96,9.55
23.2963650226593,-9.25,2.6,-6.17,11.41
23.300321102142334,-11.57,1.9,-7.84,14.1
23.310626983642578,-14.4,0.73,-9.88,17.47
23.319486141204834,-18.01,-1.72,-11.81,21.6
23.330440044403076,-21.87,-6.75,-14.73,27.21
23.341269969940186,-18.01,-2.46,-20.82,27.63
23.352582931518555,-9.88,20.1,-4.17,22.78
23.35979986190796,-4.35,22.33,-6.65,23.7
23.37002396583557,9.35,10.4,-17.52,22.41
23.396236896514893,23.01,3.55,-10.68,25.61
23.397457122802734,15.44,-0.7,-10.5,18.68
23.401299953460693,-0.9,1.55,-2.87,3.38
23.409764051437378,-12.64,5.36,-1.65,13.82
23.419666051864624,-18.42,1.47,0.12,18.47
23.430155038833618,-13.33,-4.3,4.88,14.83
23.439833164215088,-6.27,-5.41,7.79,11.36
23.453317165374756,-0.62,-4.81,5.98,7.69
23.45994997024536,2.97,-1.87,2.93,4.57
23.470322132110596,2.22,1.5,1.51,3.07
23.4954571723938,-0.17,2.47,0.45,2.51
23.496691942214966,-0.35,1.97,-8.02,8.26
23.501085996627808,2.36,5.82,-17.1,18.21
23.50986385345459,4.48,7.78,-9.67,13.19
23.520195960998535,4.31,2.2,1.37,5.02
23.530956029891968,2.09,-7.08,4.42,8.6
23.54093599319458,-2.13,-5.95,7.55,9.84
23.553078174591064,-5.08,-0.91,9.66,10.95
23.560265064239502,-4.87,-2.42,5.15,7.48
23.57037591934204,-1.44,-1.31,-2.42,3.1
23.597902059555054,2.36,2.36,-7.29,8.01
23.599138975143433,2.94,2.45,-4.36,5.8
23.60211992263794,1.09,-0.21,1.38,1.77
23.610186100006104,-0.17,-1.16,4.31,4.46
23.62083387374878,0.34,-0.13,2.2,2.22
23.630115032196045,1.12,0.77,-1.81,2.26
23.64031195640564,0.8,0.93,-2.68,2.94
23.65191888809204,-0.48,-0.14,-0.48,0.69
23.661391973495483,-1.73,-1.49,2.34,3.26
23.67021417617798,-1.97,-1.43,2.79,3.7
23.695912837982178,-1.17,-0.16,0.27,1.21
23.69680404663086,0.14,0.93,-1.79,2.02
23.700170040130615,1.05,0.86,-1.47,2.0
23.71046805381775,1.15,0.0,0.31,1.19
23.72049903869629,0.66,-0.41,1.29,1.5
23.730350971221924,0.0,-0.14,0.43,0.45
23.74053192138672,-0.39,0.26,-0.59,0.75
23.751615047454834,-0.39,0.24,-0.48,0.66
23.7608380317688,-0.15,-0.1,0.34,0.38
23.770946979522705,0.26,-0.35,0.64,0.77
23.795863151550293,0.54,-0.07,0.29,0.61
23.796754837036133,0.56,0.12,-0.02,0.57
23.80178213119507,0.43,0.04,0.06,0.43
23.810680866241455,0.23,0.08,0.29,0.37
23.820644855499268,0.75,-0.05,0.52,0.91
23.83065104484558,0.09,0.17,0.05,0.19
23.84214496612549,-0.56,0.4,0.03,0.68
23.851016998291016,0.56,0.43,0.01,0.7
23.860958099365234,1.1,0.84,-0.04,1.38
23.871110916137695,0.77,0.86,-0.26,1.18
23.896484851837158,0.71,1.14,-0.37,1.39
23.89768695831299,1.02,1.62,-0.06,1.91
23.900784015655518,1.41,2.22,0.08,2.63
23.91192603111267,1.98,3.82,-0.43,4.32
23.92100501060486,2.23,7.15,-0.22,7.49
23.93180799484253,2.75,9.05,2.9,9.89
23.94140386581421,5.16,8.59,1.92,10.2
23.950886964797974,6.96,8.86,1.48,11.36
23.96156406402588,7.76,9.3,1.89,12.25
23.97124195098877,8.18,9.7,1.61,12.79
23.997644901275635,8.62,10.8,0.54,13.82
23.998870849609375,9.36,11.46,-1.01,14.83
24.001158952713013,10.49,9.83,-1.37,14.44
24.011725902557373,11.54,5.85,-0.28,12.94
24.021183013916016,11.83,2.08,0.71,12.03
24.03113889694214,9.3,1.06,2.34,9.64
24.042180061340332,7.24,0.27,3.84,8.19
24.051259994506836,6.12,-0.76,4.74,7.77
24.061501026153564,3.27,-0.61,2.84,4.37
24.07228398323059,-0.06,0.78,0.86,1.16
24.096415042877197,0.06,2.16,-0.26,2.17
24.097306966781616,3.86,1.56,-1.66,4.48
24.10149598121643,8.24,-1.46,-5.14,9.82
24.11141800880432,9.57,-4.12,-5.86,11.95
24.121361017227173,8.4,-4.05,-5.36,10.75
24.131459951400757,6.99,-2.72,-3.93,8.46
24.141457080841064,6.2,-0.61,-1.9,6.51
24.152261972427368,6.46,0.54,1.11,6.57
24.161603927612305,7.8,-1.62,2.48,8.34
24.171776056289673,9.26,-4.85,1.87,10.61
24.197036027908325,10.42,-6.35,-0.09,12.2
24.19807004928589,10.69,-5.79,-1.73,12.27
24.20143413543701,9.47,-4.2,-2.49,10.65
24.21256113052368,7.74,-2.72,-3.6,8.95
24.221505165100098,6.48,-1.62,-5.11,8.4
24.23142099380493,5.78,-0.48,-6.4,8.63
24.241599082946777,5.39,0.66,-6.8,8.7
24.2514328956604,5.21,1.1,-6.55,8.44
24.26239585876465,5.22,0.4,-6.25,8.15
24.272045135498047,5.15,-0.82,-6.04,7.97
24.297029972076416,4.8,-1.46,-5.54,7.47
24.298269987106323,4.28,-1.03,-4.94,6.61
24.301506996154785,3.81,0.2,-4.62,5.99
24.31229591369629,3.44,1.6,-4.72,6.05
24.32167100906372,3.06,2.9,-4.82,6.4
24.332662105560303,2.53,3.9,-4.87,6.73
24.341733932495117,1.86,4.49,-4.73,6.78
24.352524042129517,1.11,4.86,-4.41,6.65
24.36198091506958,0.15,5.22,-3.94,6.54
24.37236499786377,-1.04,5.69,-3.44,6.72
24.39751100540161,-2.34,6.34,-2.72,7.28
24.398436069488525,-3.61,7.34,-1.8,8.37
24.401774883270264,-4.9,8.61,-0.67,9.92
24.41248893737793,-6.31,10.13,0.29,11.93
24.422007083892822,-8.07,11.76,0.92,14.29
24.432291984558105,-10.4,12.81,-2.23,16.65
24.442559003829956,-12.51,12.18,-4.15,17.94
24.45193910598755,-15.33,9.9,-5.49,19.05
24.462573051452637,-18.41,6.41,-5.63,20.29
24.471907138824463,-20.78,2.28,-3.91,21.26
24.49659013748169,-24.68,-4.35,2.1,25.14
24.497509956359863,-29.09,-11.64,7.85,32.3
24.502347946166992,-28.86,-8.53,0.7,30.1
24.512473106384277,-26.0,-0.73,-2.19,26.1
24.52214813232422,-15.76,4.44,7.2,17.88
24.532164096832275,-3.36,7.61,7.61,11.27
24.54220485687256,14.99,9.09,2.03,17.64
24.552846908569336,22.4,7.45,-0.79,23.61
24.56267499923706,15.75,4.61,-26.52,31.18
24.57326316833496,3.28,3.66,-6.21,7.91
24.597859859466553,-5.94,6.43,1.9,8.95
24.59880805015564,-11.36,6.24,1.46,13.04
24.602219104766846,-9.1,0.53,1.12,9.18
24.612430095672607,-4.35,-4.35,2.55,6.65
24.622334957122803,-2.28,-5.42,5.46,8.02
24.632824897766113,-1.75,-3.9,5.14,6.68
24.64350700378418,-2.32,-1.83,2.41,3.81
24.65319299697876,-3.67,-0.5,0.91,3.81
24.663301944732666,-4.93,0.02,0.2,4.93
24.674216985702515,-5.78,1.02,-0.67,5.9
24.698296070098877,-5.65,2.48,-2.21,6.55
24.699498176574707,-3.1,2.86,-6.02,7.35
24.702313899993896,0.98,4.07,-7.87,8.91
24.71260690689087,3.91,4.82,-3.78,7.26
24.723680019378662,4.86,2.47,0.54,5.47
24.733623027801514,3.69,-2.31,1.64,4.65
24.743770122528076,1.03,-5.36,2.24,5.89
24.7535879611969,-1.17,-3.29,4.09,5.37
24.76296091079712,-1.98,0.49,5.22,5.6
24.77495002746582,-1.73,0.46,2.97,3.46
24.799471855163574,-0.5,-1.07,-1.43,1.85
24.800681114196777,0.52,0.01,-4.08,4.11
24.802875995635986,0.17,1.22,-2.94,3.18
24.812867164611816,-1.02,0.32,-0.49,1.17
24.82386016845703,-1.52,-0.87,1.33,2.19
24.833943843841553,-0.75,-0.77,1.84,2.13
24.843783855438232,0.76,-0.17,0.85,1.15
24.853201866149902,1.91,0.15,-0.39,1.95
24.86382484436035,1.93,0.21,-0.3,1.96
24.87510395050049,1.18,-0.32,0.96,1.55
24.899978160858154,0.37,-0.85,1.75,1.98
24.901182174682617,-0.04,-0.57,1.38,1.49
24.903043031692505,-0.18,-0.15,0.12,0.26
24.913084030151367,-0.19,0.29,-0.77,0.84
24.924260139465332,0.01,0.44,-0.47,0.64
24.933747053146362,0.39,0.06,0.09,0.4
24.943612098693848,0.67,-0.02,0.34,0.75
24.9531888961792,0.62,0.23,0.41,0.77
24.963651180267334,0.58,0.36,0.17,0.7
24.976166009902954,0.6,0.31,0.15,0.69
24.99806499481201,0.55,0.25,0.28,0.66
24.998939990997314,0.36,0.32,0.24,0.53
25.003458976745605,0.16,0.43,-0.02,0.45
25.014316082000732,0.0,0.51,-0.35,0.61
25.024735927581787,-0.22,0.62,-0.21,0.69
25.034340858459473,-0.23,0.55,0.15,0.61
25.04464292526245,-0.02,0.57,0.31,0.64
25.05377197265625,0.17,0.84,0.37,0.93
25.063610076904297,0.31,1.08,0.37,1.18
25.076014041900635,0.61,1.14,0.51,1.38
25.099817037582397,0.97,1.35,0.39,1.7
25.101003170013428,1.02,1.59,0.02,1.88
25.10336399078369,0.88,1.56,-0.45,1.84
25.113484859466553,0.77,2.0,-0.52,2.2
25.12521505355835,1.0,2.53,-0.47,2.76
25.134220123291016,1.53,2.97,-0.59,3.39
25.143967151641846,2.07,3.66,-0.47,4.23
25.15393304824829,2.46,4.66,-0.46,5.28
25.163902044296265,2.71,6.19,-0.48,6.77
25.176424026489258,3.07,7.65,1.67,8.41
25.198901176452637,4.69,8.97,2.59,10.44
25.199920177459717,6.69,9.4,1.44,11.62
25.20348882675171,7.71,10.23,1.13,12.85
25.213551998138428,8.48,11.04,1.71,14.02
25.22551202774048,9.97,10.81,3.36,15.08
25.234643936157227,11.82,8.96,5.65,15.87
25.243633031845093,13.61,6.97,6.33,16.54
25.254596948623657,15.74,5.86,5.47,17.66
25.264039993286133,16.14,3.88,5.28,17.41
25.27412986755371,13.52,1.61,6.05,14.89
25.29859495162964,8.62,0.96,7.68,11.58
25.299796104431152,3.26,1.71,7.89,8.7
25.303813934326172,-1.35,2.45,5.37,6.05
25.31387186050415,-4.45,3.73,2.43,6.29
25.325610160827637,-5.18,5.48,1.3,7.65
25.33465814590454,-2.76,5.88,2.33,6.9
25.344398021697998,2.47,3.07,1.7,4.29
25.354114055633545,7.12,-1.05,0.96,7.26
25.364552974700928,9.5,-3.55,1.6,10.26
25.374608993530273,10.43,-4.05,3.07,11.6
25.400031089782715,10.83,-4.19,3.19,12.04
25.401248931884766,11.42,-3.65,3.36,12.45
25.404085159301758,12.56,-2.86,3.87,13.45
25.414173126220703,13.8,-2.94,3.79,14.6
25.424621105194092,14.4,-3.64,3.86,15.34
25.43512487411499,13.82,-4.46,4.03,15.07
25.44533109664917,12.13,-4.9,4.08,13.7
25.45456099510193,9.87,-4.75,4.14,11.7
25.464839935302734,7.75,-4.22,4.33,9.82
25.474570989608765,5.98,-3.55,4.28,8.16
25.499977111816406,4.62,-2.78,3.24,6.29
25.501186847686768,3.76,-1.76,1.78,4.51
25.504287004470825,3.34,-0.55,0.79,3.47
25.514281034469604,3.17,0.46,0.54,3.24
25.524678945541382,3.02,0.88,0.78,3.24
25.535097122192383,3.3,1.17,3.46,4.92
25.54465103149414,3.01,-0.05,2.68,4.03
25.554519176483154,3.34,1.18,-1.71,3.93
25.56503701210022,2.6,3.55,0.6,4.44
25.574517965316772,1.32,5.0,2.5,5.74
25.591805934906006,0.73,5.89,2.0,6.26
25.6004159450531,0.26,6.46,1.39,6.61
25.604532957077026,-0.59,7.77,0.4,7.8
25.615020990371704,-2.05,10.3,-0.66,10.52
25.625094890594482,-4.01,13.13,-1.45,13.8
25.635071992874146,-6.27,14.74,-1.64,16.1
25.64471697807312,-9.18,14.6,0.24,17.24
25.65501117706299,-12.55,13.53,1.79,18.54
25.665215969085693,-16.91,12.15,0.59,20.83
25.675631046295166,-22.04,9.92,-1.7,24.22
25.690929889678955,-25.9,6.89,-2.85,26.95
25.698843955993652,-29.69,3.61,-3.39,30.1
25.704975128173828,-34.53,-0.77,-4.49,34.82
25.7153160572052,-37.04,-3.24,-3.44,37.34
25.725144863128662,-34.94,-2.49,-2.25,35.1
25.735208988189697,-30.68,-1.67,-3.59,30.93
25.744932174682617,-25.68,0.3,-4.93,26.15
25.755262851715088,-11.02,11.6,-3.01,16.28
25.76494312286377,6.34,16.71,-10.66,20.8
25.77593183517456,30.99,11.75,-8.33,34.17
25.79161500930786,37.88,2.1,-7.46,38.66
25.79925012588501,21.59,-1.91,-7.73,23.01
25.805098056793213,4.34,-1.31,2.15,5.01
25.815009117126465,-5.68,1.66,13.71,14.93
25.82510495185852,-17.2,3.27,10.55,20.44
25.835536003112793,-20.63,-0.74,5.43,21.34
25.844962120056152,-17.33,-3.03,3.0,17.84
25.855749130249023,-13.89,-1.79,-2.42,14.21
25.865519046783447,-11.51,-0.33,-5.0,12.55
25.87563395500183,-5.13,-0.65,-3.68,6.34
25.901203155517578,0.41,-2.69,-3.47,4.4
25.902421951293945,1.84,-4.17,-5.18,6.89
25.905061960220337,2.89,0.46,-9.09,9.54
25.915162086486816,4.65,11.84,-4.49,13.48
25.92568802833557,6.28,11.0,5.38,13.76
25.936142921447754,7.35,-4.08,13.32,15.75
25.945706844329834,7.43,-10.93,1.71,13.32
25.95562982559204,5.65,-6.3,-0.94,8.51
25.965825080871582,-0.23,-0.11,1.74,1.75
25.976108074188232,-6.08,2.09,0.32,6.43
25.99281096458435,-8.95,0.86,-2.07,9.22
26.00182294845581,-7.36,0.01,-2.11,7.65
26.00555396080017,-3.45,-0.15,-0.35,3.47
26.015419960021973,0.15,-0.61,0.15,0.64
26.026421070098877,2.5,-0.29,-0.22,2.52
26.036512851715088,3.46,1.05,-0.17,3.61
26.04758882522583,3.53,1.58,0.1,3.86
26.055838108062744,2.57,0.47,0.82,2.73
26.06618595123291,1.24,-0.74,1.37,1.99
26.07599687576294,0.14,-1.03,1.23,1.61
26.09343910217285,-1.1,-0.71,0.52,1.4
26.10218596458435,-1.97,-0.12,-0.24,1.98
26.105481147766113,-1.88,0.31,-0.52,1.97
26.115599155426025,-0.89,0.27,-0.53,1.07
26.12566614151001,0.17,0.18,-0.04,0.25
26.13572406768799,0.93,0.22,0.38,1.02
26.146733045578003,1.28,0.24,0.28,1.33
26.157288074493408,1.14,0.43,0.05,1.21
26.16632103919983,0.78,0.48,-0.04,0.91
26.176244020462036,0.36,0.32,-0.04,0.48
26.193498134613037,0.09,0.23,0.08,0.25
26.20191502571106,0.07,0.27,0.19,0.33
26.20605993270874,0.31,0.42,0.16,0.54
26.2169189453125,0.47,0.64,0.13,0.8
26.226983070373535,0.54,0.86,0.05,1.01
26.235981941223145,0.61,1.05,-0.04,1.21
26.248383045196533,0.72,1.27,-0.08,1.46
26.256387948989868,0.79,1.41,-0.38,1.66
26.266584873199463,0.84,1.62,-0.68,1.94
26.276592016220093,0.81,2.02,-1.11,2.44
26.29369306564331,0.69,2.49,-1.63,3.05
26.302292823791504,0.72,2.92,-1.83,3.52
26.305907011032104,0.99,3.4,-1.41,3.81
26.31602907180786,1.55,3.91,-0.94,4.3
26.326601028442383,2.34,4.48,-0.44,5.07
26.336177825927734,3.24,5.37,-0.37,6.28
26.346096992492676,4.07,7.11,-0.61,8.21
26.356130123138428,4.79,9.63,3.29,11.24
26.366239070892334,6.16,12.03,5.19,14.47
26.3767728805542,8.73,12.71,3.06,15.72
26.39278793334961,11.53,13.08,0.36,17.44
26.402191162109375,14.25,14.45,-1.28,20.33
26.406641006469727,16.19,13.87,-1.03,21.34
26.41648817062378,15.25,8.51,2.13,17.59
26.426337957382202,11.38,2.94,4.58,12.61
26.43631601333618,7.22,0.61,4.6,8.58
26.447509050369263,3.07,0.74,11.21,11.64
26.457126140594482,1.58,1.47,10.13,10.35
26.466824054718018,2.33,1.02,6.53,7.0
26.47675609588623,3.92,0.08,2.71,4.76
26.49429416656494,4.64,1.57,2.67,5.57
26.503031015396118,5.58,4.07,0.1,6.9
26.506433963775635,8.03,2.36,-0.42,8.38
26.51647186279297,9.47,-1.16,-0.66,9.56
26.52666401863098,9.62,-2.84,-1.62,10.16
26.537147998809814,9.26,-3.14,0.83,9.81
26.54792094230652,8.74,-3.36,3.51,9.99
26.55725908279419,8.78,-3.68,5.09,10.79
26.567090034484863,9.2,-4.67,5.04,11.48
26.576944828033447,9.69,-5.68,5.46,12.48
26.593924045562744,9.81,-5.98,6.34,13.12
26.603900909423828,9.19,-5.74,6.28,12.52
26.60685896873474,8.2,-5.47,6.01,11.54
26.616726875305176,7.28,-5.07,6.19,10.81
26.62672996520996,6.15,-4.64,6.76,10.24
26.63791799545288,4.93,-4.02,6.96,9.42
26.648240089416504,3.99,-3.03,6.32,8.06
26.657515048980713,3.53,-1.26,5.47,6.63
26.667396068572998,3.24,1.28,5.53,6.53
26.67708110809326,2.86,3.37,6.37,7.75
26.694869995117188,2.12,3.95,7.05,8.35
26.704339027404785,0.91,3.25,7.24,7.98
26.706850051879883,-0.76,2.85,7.79,8.32
26.71692705154419,-2.85,3.55,8.74,9.85
26.72799301147461,-5.05,4.72,9.63,11.85
26.73701000213623,-6.5,5.71,10.15,13.33
26.74874496459961,-6.28,6.23,9.78,13.18
26.757718086242676,-4.75,6.15,8.63,11.61
26.767554998397827,-3.04,5.46,9.36,11.25
26.777257919311523,-1.34,4.6,10.59,11.62
26.79542589187622,-0.04,4.34,10.8,11.63
26.804855823516846,0.75,4.75,10.16,11.24
26.807135105133057,0.96,5.34,9.05,10.55
26.817222118377686,0.11,5.85,7.38,9.41
26.827180862426758,-1.65,6.4,6.4,9.2
26.837239980697632,-3.68,6.85,3.8,8.65
26.84917402267456,-5.25,6.07,-0.61,8.04
26.858019828796387,-6.73,4.79,1.05,8.32
26.867810010910034,-9.14,4.58,5.98,11.84
26.877397060394287,-12.99,4.63,5.64,14.89
26.895265102386475,-16.97,4.68,2.41,17.76
26.897240161895752,-19.01,5.38,2.93,19.97
26.907881021499634,-19.69,4.38,2.27,20.29
26.917337894439697,-21.08,1.82,-1.29,21.19
26.927459955215454,-22.76,0.2,-2.52,22.89
26.93754291534424,-23.17,-0.18,-2.18,23.27
26.9482479095459,-22.02,0.15,-3.78,22.34
26.957725048065186,-17.3,2.46,-5.83,18.42
26.96798086166382,-16.96,8.07,-9.64,21.11
26.977643966674805,-17.4,15.38,-7.3,24.34
26.995585918426514,-5.9,12.86,-2.36,14.34
26.99739408493042,8.52,4.08,0.69,9.47
27.007657051086426,13.64,-1.34,-2.37,13.9
27.01753282546997,12.78,-0.98,-2.66,13.09
27.02769899368286,2.98,2.06,1.37,3.87
27.03763484954834,-8.67,2.44,4.14,9.91
27.047608852386475,-14.37,0.3,5.3,15.31
27.05791711807251,-10.92,-4.03,6.97,13.56
27.068140029907227,-0.68,-5.11,3.99,6.51
27.07789707183838,6.22,-3.28,1.5,7.19
27.095801830291748,5.79,0.31,-0.27,5.8
27.09772300720215,2.13,3.06,-0.84,3.82
27.10822296142578,-1.17,2.64,-1.26,3.15
27.117713928222656,-3.17,0.61,-0.89,3.34
27.12882399559021,-3.28,-0.61,-0.21,3.34
27.137836933135986,-2.02,-0.53,0.36,2.11
27.148727893829346,-0.76,-0.09,0.65,1.0
27.158159017562866,0.51,-0.19,1.31,1.41
27.16841983795166,1.47,-0.55,1.74,2.34
27.178125858306885,1.49,-0.6,1.41,2.13
27.195488929748535,0.68,-0.38,1.31,1.52
27.197887897491455,-0.22,-0.21,1.14,1.17
27.209095001220703,-0.7,-0.13,0.85,1.1
27.21800994873047,-0.68,0.02,0.45,0.81
27.228235006332397,-0.26,0.14,-0.17,0.34
27.238099098205566,0.22,0.21,-0.4,0.5
27.250083923339844,0.57,0.3,-0.22,0.68
27.25814390182495,0.65,0.38,-0.03,0.75
27.268714904785156,0.51,0.24,-0.33,0.65
27.27860999107361,0.26,-0.11,-0.58,0.64
27.29639482498169,-0.02,-0.17,-0.58,0.6
27.298057079315186,-0.14,0.04,-0.12,0.18
27.308763027191162,-0.08,0.19,0.16,0.26
27.318238973617554,0.14,0.04,0.23,0.27
27.329248905181885,0.35,-0.06,0.17,0.39
27.339149951934814,0.46,0.07,0.07,0.47
27.348618984222412,0.41,0.26,-0.24,0.54
27.35859704017639,0.18,0.38,-0.74,0.85
27.368781089782715,-0.12,0.49,-1.22,1.32
27.3786940574646,-0.34,0.72,-1.39,1.6
27.397162914276123,-0.4,0.94,-0.92,1.37
27.40611505508423,-0.18,0.92,-0.48,1.05
27.408488035202026,0.29,0.58,-0.64,0.91
27.4184250831604,0.77,0.64,0.26,1.03
27.429558992385864,1.3,0.95,0.1,1.61
27.43851399421692,1.42,1.35,-0.07,1.96
27.450477123260498,1.17,1.55,0.47,1.99
27.4585919380188,0.98,1.38,-0.09,1.69
27.469748973846436,0.78,1.14,-1.25,1.86
27.479071140289307,0.49,1.06,-1.98,2.29
27.49663209915161,0.33,1.41,-1.44,2.04
27.498440980911255,0.56,1.94,-0.15,2.02
27.50913906097412,1.33,2.33,0.92,2.83
27.51863193511963,2.43,2.61,1.52,3.87
27.529644012451172,3.31,3.53,2.36,5.38
27.538846969604492,4.04,5.45,1.36,6.91
27.549498081207275,4.7,7.36,3.94,9.58
27.55944013595581,5.77,8.64,4.15,11.18
27.569302082061768,7.06,8.69,1.92,11.35
27.578997135162354,8.11,8.78,0.79,11.97
27.596252918243408,9.07,9.52,0.38,13.15
27.598802089691162,10.11,10.38,-0.3,14.49
27.6094331741333,11.44,9.79,-1.23,15.1
27.618852138519287,13.13,7.27,-1.31,15.06
27.629626989364624,13.51,4.68,1.24,14.35
27.638916969299316,11.28,1.64,4.47,12.24
27.649755001068115,5.54,1.13,4.64,7.31
27.658931970596313,1.69,3.88,7.83,8.9
27.670773029327393,0.41,6.06,9.93,11.64
27.67936396598816,1.59,6.01,7.63,9.84
27.697239875793457,3.19,6.08,4.16,8.02
27.698930025100708,2.43,8.0,3.33,8.99
27.709052085876465,0.92,8.5,2.68,8.95
27.719084978103638,1.29,6.0,3.61,7.12
27.730247020721436,3.51,2.76,3.39,5.6
27.73915195465088,6.33,-0.41,2.37,6.77
27.75005006790161,9.33,-3.11,2.87,10.24
27.759644985198975,12.21,-4.91,2.46,13.38
27.76977801322937,14.09,-5.6,1.99,15.29
27.779615879058838,14.46,-5.62,2.32,15.68
27.797745943069458,13.52,-5.13,2.82,14.73
27.799165964126587,12.47,-4.23,3.02,13.5
27.810099124908447,11.98,-3.28,3.27,12.84
27.819206953048706,11.88,-2.91,2.73,12.53
27.829430103302002,11.55,-2.81,2.12,12.07
27.83941411972046,10.62,-2.92,2.41,11.27
27.85074806213379,9.27,-3.2,3.3,10.34
27.85975217819214,7.77,-3.44,4.26,9.5
27.87004804611206,6.25,-3.47,4.87,8.64
27.879608154296875,4.86,-3.0,4.98,7.57
27.897447109222412,3.76,-1.72,4.37,6.01
27.899423122406006,2.93,0.36,2.69,3.99
27.909643173217773,2.55,2.33,2.81,4.45
27.919471979141235,2.49,3.53,3.72,5.7
27.93069100379944,2.31,3.75,3.38,5.55
27.93959403038025,1.77,3.68,2.63,4.85
27.95038890838623,0.74,4.13,2.05,4.66
27.959535121917725,-0.7,4.94,2.11,5.41
27.972126960754395,-2.36,5.88,2.21,6.71
27.97988796234131,-4.21,7.15,2.23,8.59
27.99722385406494,-6.05,8.51,1.81,10.59
27.999578952789307,-6.53,8.84,1.31,11.06
28.009933948516846,-6.16,9.14,2.56,11.31
28.020830154418945,-6.08,9.34,3.0,11.54
28.030205965042114,-6.92,9.81,2.99,12.37
28.040419101715088,-8.58,10.02,3.03,13.53
28.049904823303223,-10.17,8.62,-1.28,13.39
28.06088900566101,-11.44,6.43,-4.24,13.79
28.072388172149658,-14.02,4.68,0.0,14.78
28.08052682876587,-19.12,3.24,3.75,19.75
28.097419023513794,-24.81,2.64,2.21,25.04
28.09987211227417,-25.95,2.31,0.24,26.05
28.11028504371643,-23.04,1.77,-0.11,23.1
28.121283054351807,-21.62,1.67,-2.75,21.85
28.130323886871338,-21.56,2.07,-3.86,22.0
28.13993501663208,-21.58,1.32,-4.2,22.02
28.150529861450195,-20.77,0.4,-3.91,21.13
28.160783052444458,-16.07,2.5,-3.65,16.66
28.173197984695435,-7.52,9.71,-5.93,13.63
28.18037986755371,-3.49,13.8,-4.54,14.94
28.198605060577393,1.42,13.68,-3.51,14.19
28.200075149536133,7.13,4.46,-4.12,9.36
28.210410118103027,8.51,-3.26,-1.92,9.31
28.22165584564209,7.22,-3.49,0.58,8.04
28.231523990631104,4.16,-0.84,4.13,5.92
28.241132020950317,-0.59,0.87,6.97,7.04
28.250810146331787,-5.98,0.53,5.15,7.9
28.261420011520386,-9.63,-1.71,0.69,9.8
28.273117065429688,-9.08,-3.26,0.27,9.65
28.280683040618896,-6.69,-2.39,0.73,7.14
28.298492908477783,-4.34,-0.47,0.2,4.36
28.300283908843994,-1.93,0.72,-1.55,2.57
28.31107997894287,0.81,1.61,-6.21,6.46
28.322067975997925,2.91,4.61,-7.35,9.15
28.33162212371826,3.35,5.88,-3.59,7.66
28.340535163879395,2.47,1.88,0.81,3.2
28.35123896598816,1.18,-3.8,2.56,4.73
28.360886096954346,-0.17,-5.02,4.96,7.05
28.373705863952637,-0.95,-2.52,6.75,7.26
28.380702018737793,-1.07,-1.45,3.67,4.08
28.399554014205933,-0.44,-0.09,-1.49,1.55
28.401814937591553,0.49,2.13,-3.59,4.2
28.410818099975586,0.27,1.75,-2.14,2.77
28.42253303527832,-0.51,-0.28,-0.22,0.62
28.430819034576416,-0.68,-0.55,1.25,1.52
28.440688133239746,-0.22,0.16,0.99,1.02
28.451573848724365,0.48,0.41,-0.95,1.14
28.461162090301514,0.92,0.67,-1.13,1.6
28.47388195991516,0.68,0.2,0.28,0.76
28.480970859527588,0.23,-0.47,1.23,1.33
28.499340057373047,0.06,-0.24,0.76,0.79
28.50084400177002,0.11,0.29,-0.33,0.45
28.511041164398193,0.16,0.45,-0.81,0.94
28.521750926971436,0.01,0.25,-0.3,0.39
28.531015872955322,-0.24,0.24,0.38,0.5
28.54086208343506,0.22,0.2,0.77,0.82
28.551733016967773,0.79,0.23,0.1,0.82
28.56130599975586,0.02,0.71,-0.24,0.74
28.573069095611572,-0.05,0.48,-0.3,0.56
28.58107304573059,0.2,0.3,-0.47,0.59
28.599096059799194,-0.12,0.72,-0.23,0.76
28.600895881652832,-0.17,0.79,0.1,0.81
28.612318992614746,0.37,0.71,0.28,0.84
28.62101411819458,0.91,1.42,0.92,1.92
28.63121795654297,1.28,0.87,0.94,1.81
28.64119815826416,1.17,0.21,-1.01,1.55
28.651121139526367,0.53,2.05,0.63,2.2
28.661988019943237,0.76,2.73,0.0,2.83
28.671695947647095,1.66,2.68,-1.75,3.6
28.682126998901367,1.97,2.64,-2.31,4.02
28.698753833770752,1.83,2.64,-1.88,3.72
28.701128005981445,1.9,3.02,-0.61,3.61
28.71219491958618,2.5,3.96,0.47,4.7
28.721732139587402,3.46,5.06,0.93,6.2
28.732458114624023,4.46,6.1,1.18,7.64
28.741408824920654,5.46,7.31,1.59,9.26
28.75139808654785,6.47,9.28,1.17,11.37
28.761434078216553,7.53,12.18,1.89,14.44
28.77221393585205,9.33,14.91,4.32,18.11
28.781968116760254,12.73,15.06,2.73,19.9
28.79854702949524,16.41,12.04,-1.86,20.43
28.801445960998535,17.78,9.8,-1.8,20.38
28.812334060668945,16.67,6.27,1.43,17.86
28.822849988937378,13.13,1.17,-2.77,13.46
28.831636905670166,5.27,-0.71,5.49,7.64
28.841556072235107,-0.33,0.21,9.55,9.55
28.851603031158447,-3.93,3.34,9.38,10.7
28.86161494255066,-6.46,7.31,6.33,11.62
28.87275505065918,-4.27,8.55,4.7,10.65
28.881657123565674,-0.24,6.2,6.3,8.84
28.899354934692383,4.59,2.59,5.04,7.29
28.901578903198242,10.99,-0.81,3.2,11.47
28.912763118743896,14.85,-3.77,3.37,15.68
28.922217845916748,13.73,-5.26,3.21,15.04
28.931910037994385,10.91,-4.91,5.56,13.19
28.941708087921143,9.09,-3.81,6.7,11.91
28.952963829040527,8.27,-2.48,7.3,11.3
28.961791038513184,8.09,-2.19,6.83,10.81
28.972749948501587,8.68,-2.67,5.35,10.54
28.981773853302002,9.63,-2.87,4.53,11.02
28.999195098876953,10.46,-2.68,5.69,12.2
29.001909017562866,11.08,-2.4,7.2,13.43
29.01339101791382,10.86,-2.51,7.84,13.62
29.0223970413208,9.27,-3.13,9.24,13.45
29.032072067260742,7.2,-3.37,10.25,12.97
29.04192590713501,5.35,-2.59,11.22,12.69
29.05192804336548,3.93,-1.5,11.16,11.92
29.062131881713867,3.1,-0.23,9.74,10.22
29.073057174682617,2.47,1.17,7.98,8.43
29.082898139953613,1.75,2.12,7.27,7.77
29.09958004951477,0.81,2.01,7.6,7.9
29.102141857147217,-0.44,1.42,8.06,8.19
29.113872051239014,-1.8,1.23,8.73,8.99
29.122634887695312,-2.66,1.51,9.39,9.87
29.132261037826538,-2.61,1.94,10.01,10.52
29.14221501350403,-1.76,2.24,10.34,10.72
29.153401851654053,-0.58,2.32,10.46,10.72
29.163164138793945,0.44,2.53,10.5,10.8
29.17377495765686,1.08,3.21,10.39,10.92
29.1824369430542,1.13,4.26,10.2,11.11
29.199476957321167,0.64,5.36,10.48,11.78
29.20232605934143,-0.37,6.58,10.93,12.76
29.214540004730225,-1.73,7.8,11.12,13.69
29.222361087799072,-3.15,8.96,10.93,14.47
29.23252010345459,-4.41,9.9,8.62,13.84
29.242506980895996,-5.07,9.65,0.81,10.93
29.252498149871826,-6.44,8.89,-0.71,11.0
29.26249885559082,-9.31,8.98,1.42,13.01
29.27364683151245,-14.05,8.9,1.32,16.68
29.283382892608643,-20.38,7.52,-0.75,21.73
29.30005407333374,-25.67,5.38,-0.35,26.23
29.302559852600098,-27.8,3.25,3.31,28.18
29.31518316268921,-26.78,1.67,-0.06,26.83
29.322962999343872,-25.79,1.16,-5.88,26.47
29.333070993423462,-25.58,1.5,-8.57,27.01
29.342862129211426,-25.8,-1.56,-10.07,27.73
29.354095935821533,-15.43,2.96,-16.38,22.69
29.362715005874634,-7.93,18.04,-7.89,21.22
29.374032020568848,-5.71,20.33,-1.53,21.17
29.383250951766968,2.44,13.34,-12.4,18.37
29.400516033172607,8.12,3.38,-7.16,11.34
29.402689933776855,8.82,-1.93,-4.23,9.97
29.415317058563232,7.77,-2.38,2.97,8.65
29.422719955444336,5.09,-0.35,9.4,10.69
29.43386697769165,0.07,1.16,8.7,8.77
29.443018913269043,-5.53,0.71,5.48,7.81
29.453304052352905,-9.49,-1.99,3.73,10.38
29.463696002960205,-9.59,-4.37,0.82,10.57
29.47329616546631,-8.25,-4.28,-0.35,9.3
29.483340978622437,-7.15,-1.67,-2.13,7.64
29.501319885253906,-5.8,1.97,-4.62,7.67
29.503052949905396,-3.69,3.3,-6.39,8.08
29.516175985336304,-0.46,4.67,-6.68,8.16
29.523075103759766,3.16,5.25,-7.03,9.32
29.53425407409668,5.24,2.29,-3.33,6.61
29.542991161346436,5.4,-1.1,3.29,6.41
29.553913116455078,4.33,-5.38,11.21,13.16
29.56353497505188,1.94,-6.27,5.4,8.49
29.573596000671387,0.98,-2.55,2.52,3.71
29.583438873291016,-0.38,0.64,1.87,2.01
29.601372003555298,-1.99,1.03,-0.13,2.24
29.60413098335266,-2.74,0.52,-1.68,3.25
29.61675000190735,-2.38,0.93,-1.96,3.22
29.623255014419556,-1.35,1.34,-1.89,2.68
29.63404083251953,-0.25,1.07,-2.07,2.34
29.644201040267944,0.48,0.57,-1.46,1.63
29.65431785583496,0.8,0.27,0.26,0.88
29.663611888885498,1.01,-0.4,2.06,2.32
29.673858165740967,1.06,-1.15,2.53,2.97
29.68374013900757,0.64,-1.11,1.29,1.81
29.702245950698853,0.04,-0.25,-0.02,0.25
29.704509973526,-0.38,0.46,-0.59,0.83
29.717134952545166,-0.54,0.33,-0.48,0.79
29.72337794303894,-0.45,-0.07,-0.07,0.46
29.73359704017639,-0.15,-0.15,0.41,0.46
29.74445915222168,0.28,0.02,0.42,0.5
29.75413417816162,0.66,0.18,-0.01,0.68
29.764682054519653,0.74,0.29,-0.34,0.86
29.774005889892578,0.48,0.32,-0.46,0.73
29.78400182723999,0.09,0.29,-0.64,0.7
29.80259394645691,-0.17,0.41,-0.63,0.77
29.804832935333252,-0.14,0.56,-0.37,0.68
29.817555904388428,0.24,0.75,-0.06,0.78
29.823567867279053,0.84,1.02,0.3,1.35
29.83484697341919,1.39,0.97,0.39,1.73
29.844997882843018,1.65,0.67,0.15,1.78
29.8546040058136,1.52,0.59,0.28,1.65
29.864070892333984,1.2,0.83,0.46,1.52
29.874288082122803,1.06,1.34,0.83,1.89
29.884013175964355,1.26,1.89,0.8,2.4
29.902362823486328,1.64,2.35,0.42,2.89
29.90372896194458,2.06,2.87,0.49,3.56
29.917206048965454,2.64,3.61,1.14,4.61
29.923781871795654,3.55,4.59,1.69,6.04
29.93409299850464,4.47,6.53,2.1,8.18
29.94539999961853,5.61,9.6,3.09,11.54
29.955088138580322,7.21,11.69,4.36,14.41
29.965351104736328,9.48,12.24,2.55,15.69
29.97450017929077,11.63,12.9,1.1,17.4
29.984519958496094,13.62,14.67,0.47,20.02
30.002915859222412,15.85,14.85,-1.11,21.74
30.005151987075806,18.02,11.59,-2.58,21.58
30.017704963684082,17.81,7.28,1.6,19.3
30.023862838745117,15.73,1.48,4.5,16.42
30.034276962280273,10.56,-2.1,7.91,13.36
30.04591417312622,5.65,-0.01,13.69,14.81
30.054715156555176,1.82,5.2,7.67,9.44
30.064723014831543,-3.44,11.42,1.26,11.99
30.07482099533081,-6.46,13.82,-2.24,15.41
30.08474898338318,-3.62,8.61,7.6,12.04
30.103055000305176,3.48,1.58,8.09,8.94
30.105213165283203,10.99,-3.9,5.09,12.72
30.11879801750183,17.28,-7.37,3.88,19.18
30.12442111968994,20.12,-8.43,3.83,22.14
30.13452386856079,19.49,-7.22,3.99,21.16
