time,ax,ay,az,atotal
0.007003068923950195,-0.13,0.08,0.27,0.31
0.018554210662841797,-0.26,-0.01,0.12,0.28
0.027133941650390625,-0.21,0.01,0.06,0.21
0.040830135345458984,-0.08,0.06,0.05,0.11
0.047245025634765625,0.04,0.04,0.0,0.05
0.05837512016296387,0.14,-0.02,-0.05,0.15
0.06911420822143555,0.2,-0.06,-0.04,0.21
0.07728290557861328,0.28,-0.09,-0.07,0.3
0.08767223358154297,0.34,-0.1,-0.1,0.36
0.09767508506774902,0.37,-0.03,-0.07,0.37
0.10796117782592773,0.21,0.03,-0.03,0.21
0.1194450855255127,-0.09,0.17,0.08,0.2
0.12856507301330566,-0.39,0.31,0.22,0.54
0.14157819747924805,-0.57,0.27,0.23,0.67
0.14730596542358398,-0.6,0.08,0.16,0.62
0.15736818313598633,-0.39,-0.02,0.16,0.42
0.16735601425170898,-0.11,-0.04,0.13,0.17
0.17746710777282715,0.17,-0.05,-0.03,0.17
0.1880810260772705,0.36,-0.02,-0.16,0.39
0.1979660987854004,0.39,-0.05,-0.2,0.44
0.20806121826171875,0.34,-0.07,-0.12,0.36
0.21819400787353516,0.18,-0.08,-0.02,0.19
0.23078298568725586,0.04,-0.03,0.07,0.08
0.2419581413269043,-0.07,0.07,0.1,0.14
0.24752211570739746,-0.11,0.12,0.03,0.16
0.257627010345459,-0.14,0.09,-0.08,0.18
0.2678952217102051,-0.14,0.17,-0.02,0.22
0.2775421142578125,-0.08,0.24,0.05,0.25
0.2881770133972168,0.0,0.16,-0.05,0.16
0.297853946685791,0.02,0.12,-0.07,0.14
0.30801916122436523,-0.08,0.14,0.03,0.16
0.317857027053833,-0.14,0.05,0.03,0.15
0.3296852111816406,-0.08,-0.08,-0.01,0.11
0.3422379493713379,0.03,-0.07,0.01,0.07
0.34770822525024414,0.05,0.03,0.05,0.07
0.35894203186035156,-0.03,0.06,0.03,0.07
0.3683052062988281,-0.14,0.06,0.04,0.15
0.3787240982055664,-0.25,0.05,0.08,0.26
0.3882150650024414,-0.36,0.03,0.12,0.38
0.3980369567871094,-0.4,0.05,0.17,0.43
0.4083070755004883,-0.36,0.14,0.2,0.43
0.41808104515075684,-0.28,0.19,0.16,0.37
0.429872989654541,-0.19,0.13,0.04,0.23
0.4426441192626953,-0.11,0.17,-0.03,0.2
0.44796109199523926,-0.01,0.2,-0.14,0.24
0.45816993713378906,0.11,0.14,-0.22,0.28
0.46816492080688477,0.25,0.09,-0.12,0.29
0.4788022041320801,0.3,-0.07,-0.1,0.32
0.4889202117919922,0.26,-0.18,-0.17,0.35
0.4987931251525879,0.32,-0.13,-0.11,0.36
0.5087940692901611,0.38,-0.03,0.03,0.38
0.5188870429992676,0.35,-0.02,0.07,0.35
0.5306792259216309,0.2,-0.04,0.09,0.22
0.5430679321289062,-0.03,-0.01,0.23,0.23
0.5482280254364014,-0.2,0.0,0.28,0.34
0.5587880611419678,-0.18,-0.13,0.11,0.24
0.5682690143585205,0.01,-0.17,0.01,0.17
0.5782489776611328,0.24,-0.07,0.05,0.25
0.5888462066650391,0.39,-0.04,-0.01,0.39
0.5985980033874512,0.42,-0.06,-0.08,0.43
0.6085882186889648,0.36,-0.06,-0.08,0.37
0.6185741424560547,0.26,-0.1,-0.1,0.29
0.6302111148834229,0.2,-0.14,-0.11,0.26
0.6434659957885742,0.18,-0.16,-0.05,0.24
0.6483690738677979,0.18,-0.15,0.04,0.23
0.659430980682373,0.13,-0.13,0.14,0.23
0.6690192222595215,0.03,-0.15,0.19,0.24
0.6786031723022461,-0.05,-0.14,0.15,0.21
0.6886692047119141,-0.11,-0.03,0.13,0.17
0.6992321014404297,-0.14,0.11,0.13,0.22
0.7090311050415039,-0.1,0.14,0.07,0.18
0.7185981273651123,-0.05,0.1,0.02,0.11
0.7305641174316406,-0.02,0.05,0.01,0.05
0.743920087814331,-0.01,-0.03,0.03,0.04
0.7485589981079102,-0.02,-0.15,0.03,0.15
0.7586941719055176,0.03,-0.25,0.04,0.25
0.7697360515594482,0.15,-0.36,0.1,0.4
0.7801332473754883,0.3,-0.47,0.13,0.57
0.7892401218414307,0.42,-0.54,0.16,0.7
0.79911208152771,0.5,-0.41,0.18,0.67
0.8093681335449219,0.53,0.09,0.34,0.63
0.8192400932312012,0.28,0.62,0.59,0.9
0.8311030864715576,-0.18,0.75,0.58,0.96
0.8442931175231934,-0.48,0.59,0.25,0.8
0.8489089012145996,-0.75,0.47,-0.12,0.89
0.8589391708374023,-1.13,0.38,-0.3,1.22
0.8699400424957275,-1.2,0.34,-0.24,1.27
0.8790531158447266,-0.75,0.27,-0.09,0.8
0.8895001411437988,-0.07,0.09,-0.08,0.13
0.8991520404815674,0.33,-0.06,-0.13,0.35
0.9094300270080566,0.56,-0.06,-0.08,0.56
0.9194211959838867,0.66,0.04,0.0,0.66
0.9309072494506836,0.58,0.14,0.09,0.6
0.9446630477905273,0.35,0.13,0.08,0.38
0.949073076248169,0.04,0.06,0.03,0.07
0.9590401649475098,-0.2,0.03,0.06,0.21
0.9701309204101562,-0.34,-0.01,0.17,0.38
0.9802420139312744,-0.41,-0.05,0.27,0.49
0.9890661239624023,-0.41,-0.1,0.3,0.51
1.000054121017456,-0.37,-0.17,0.29,0.49
1.0097379684448242,-0.31,-0.18,0.27,0.44
1.0193681716918945,-0.27,-0.06,0.3,0.4
1.0311610698699951,-0.28,0.08,0.3,0.41
1.045083999633789,-0.34,0.13,0.17,0.4
1.0493171215057373,-0.31,0.14,0.02,0.34
1.0593540668487549,-0.25,0.13,-0.1,0.29
1.0694561004638672,-0.15,0.14,-0.13,0.24
1.0794410705566406,0.01,0.06,-0.15,0.16
1.090790033340454,0.19,-0.05,-0.19,0.27
1.0996031761169434,0.35,-0.06,-0.13,0.37
1.1101300716400146,0.43,-0.06,-0.09,0.44
1.1191990375518799,0.43,-0.06,-0.09,0.44
1.1319169998168945,0.37,-0.03,-0.11,0.38
1.145596981048584,0.27,0.02,-0.16,0.31
1.1496639251708984,0.17,0.14,-0.19,0.29
1.1595830917358398,0.07,0.28,-0.19,0.34
1.170180082321167,0.0,0.34,-0.2,0.39
1.1803278923034668,-0.05,0.32,-0.24,0.4
1.1916370391845703,-0.09,0.27,-0.25,0.37
1.1998529434204102,-0.12,0.2,-0.19,0.3
1.2101969718933105,-0.15,0.18,-0.07,0.24
1.2200422286987305,-0.16,0.13,-0.01,0.2
1.231511116027832,-0.14,0.08,-0.01,0.16
1.2459161281585693,-0.13,0.08,-0.05,0.16
1.2498290538787842,-0.09,0.1,-0.11,0.17
1.2599010467529297,-0.03,0.13,-0.19,0.23
1.2698290348052979,0.03,0.18,-0.25,0.3
1.280729055404663,0.11,0.24,-0.27,0.37
1.291673183441162,0.2,0.22,-0.28,0.4
1.3001432418823242,0.16,0.26,-0.2,0.36
1.3102679252624512,0.07,0.23,-0.14,0.27
1.320052146911621,-0.03,0.16,-0.1,0.19
1.3321151733398438,-0.11,0.08,-0.05,0.14
1.3463811874389648,-0.15,-0.02,-0.01,0.15
1.34995698928833,-0.14,-0.09,0.01,0.16
1.3604240417480469,0.01,-0.09,0.07,0.11
1.3708319664001465,0.19,-0.09,0.06,0.21
1.380176067352295,0.23,-0.05,0.09,0.25
1.3905301094055176,0.16,-0.06,0.1,0.19
1.4000592231750488,0.03,-0.09,0.09,0.13
1.4108591079711914,-0.14,-0.09,0.11,0.19
1.4209189414978027,-0.24,-0.05,0.16,0.29
1.4318389892578125,-0.23,0.01,0.28,0.36
1.4464869499206543,-0.25,0.04,0.35,0.43
1.450028896331787,-0.27,0.02,0.26,0.37
1.460118055343628,-0.25,-0.05,0.09,0.27
1.4706759452819824,-0.19,-0.07,0.01,0.2
1.481132984161377,-0.08,-0.07,0.01,0.1
1.492204189300537,0.11,-0.16,0.0,0.19
1.500917911529541,0.27,-0.22,0.01,0.34
1.5106191635131836,0.35,-0.2,0.01,0.4
1.5209269523620605,0.34,-0.11,0.03,0.35
1.533174991607666,0.21,-0.05,0.05,0.22
1.5473101139068604,0.03,-0.01,0.06,0.06
1.550408124923706,-0.18,0.1,0.11,0.23
1.5604510307312012,-0.33,0.21,0.17,0.42
1.5711159706115723,-0.42,0.23,0.17,0.5
1.5810370445251465,-0.45,0.19,0.09,0.49
1.5932612419128418,-0.4,0.14,0.05,0.42
1.6008682250976562,-0.25,0.09,0.04,0.26
1.611173152923584,-0.01,0.01,0.02,0.02
1.6212100982666016,0.22,-0.07,-0.02,0.23
1.6335382461547852,0.34,-0.1,-0.02,0.35
1.6475610733032227,0.35,-0.12,0.0,0.37
1.6506352424621582,0.23,-0.1,0.01,0.25
1.6606760025024414,0.09,-0.05,0.06,0.11
1.6712641716003418,0.01,-0.05,0.07,0.08
1.681210994720459,0.0,-0.05,0.07,0.08
1.692997932434082,0.03,-0.01,0.13,0.13
1.701050043106079,0.04,-0.01,0.12,0.12
1.7111310958862305,0.01,0.1,0.11,0.14
1.720945119857788,-0.01,0.18,0.03,0.18
1.7333612442016602,-0.02,0.14,-0.09,0.16
1.747969150543213,0.01,0.09,-0.07,0.11
1.7509191036224365,0.04,0.05,-0.02,0.06
1.7613811492919922,-0.06,0.04,0.01,0.07
1.7716641426086426,-0.14,0.09,0.05,0.17
1.7817811965942383,-0.06,0.09,-0.02,0.1
1.7943110466003418,0.04,0.13,-0.09,0.16
1.8013372421264648,0.08,0.21,-0.11,0.25
1.811561107635498,0.06,0.24,-0.11,0.27
1.8213310241699219,0.07,0.21,-0.16,0.27
1.8335962295532227,0.04,0.23,-0.15,0.27
1.8482410907745361,-0.01,0.22,-0.15,0.26
1.8510410785675049,-0.01,0.16,-0.13,0.2
1.8614070415496826,0.02,0.1,-0.13,0.16
1.871809959411621,0.08,0.11,-0.11,0.17
1.88179612159729,0.18,0.12,-0.14,0.25
1.8944370746612549,0.25,0.18,-0.2,0.36
1.901440143585205,0.31,0.24,-0.32,0.5
1.9126582145690918,0.38,0.21,-0.5,0.66
1.9215960502624512,0.49,0.12,-0.65,0.82
1.9335079193115234,0.49,0.25,-0.57,0.79
1.9486610889434814,0.58,0.16,-0.65,0.88
1.9513161182403564,0.65,0.19,-0.68,0.95
1.9612040519714355,0.76,0.28,-0.68,1.05
1.9720349311828613,0.93,0.33,-0.76,1.24
1.982058048248291,1.15,0.3,-0.88,1.47
1.9946300983428955,1.41,0.19,-0.87,1.66
2.001681089401245,1.77,0.04,-0.53,1.84
2.01202392578125,2.18,-0.08,-0.01,2.18
2.0218281745910645,2.57,-0.16,0.5,2.62
2.0340609550476074,2.91,-0.27,0.99,3.08
2.041530132293701,3.24,-0.22,1.41,3.54
2.051608085632324,3.56,-0.02,2.06,4.11
2.061513900756836,4.05,0.03,2.72,4.87
2.073050022125244,4.53,1.05,3.83,6.02
2.082257032394409,3.05,-0.12,1.05,3.22
2.0950851440429688,-0.14,-2.87,-2.49,3.8
2.101889133453369,-3.11,-3.35,-4.74,6.58
2.111948013305664,-4.81,-1.96,-6.12,8.02
2.1218318939208984,-5.18,-0.11,-6.14,8.03
2.134232997894287,-4.47,0.4,-5.97,7.46
2.141648054122925,-2.59,0.11,-5.5,6.08
2.152255058288574,0.31,0.35,-4.35,4.37
2.1621720790863037,3.05,0.49,-3.36,4.56
2.1718850135803223,4.51,0.19,-2.91,5.37
2.183380126953125,4.55,-0.1,-2.38,5.13
2.192674160003662,3.66,-0.08,-1.46,3.94
2.20291805267334,2.21,-0.16,-0.79,2.35
2.2123541831970215,0.47,-0.57,-0.89,1.15
2.2224202156066895,-1.24,-0.92,-1.16,1.93
2.2351760864257812,-2.52,-0.87,-1.05,2.86
2.24202823638916,-3.13,-0.58,-0.61,3.24
2.2519021034240723,-3.0,-0.32,0.02,3.01
2.2620530128479004,-2.28,-0.28,0.65,2.38
2.2719812393188477,-1.27,-0.32,1.24,1.8
2.282012939453125,-0.45,-0.39,1.56,1.66
2.2929491996765137,-0.09,-0.25,1.8,1.81
2.302326202392578,-0.17,0.21,2.17,2.18
2.3125410079956055,-0.6,0.72,2.37,2.54
2.322343111038208,-1.2,1.03,2.29,2.78
2.335036039352417,-1.85,1.09,2.13,3.02
2.3420610427856445,-2.47,0.96,1.95,3.29
2.3522140979766846,-2.92,0.77,1.9,3.56
2.3623361587524414,-3.05,0.45,1.92,3.63
2.3724451065063477,-2.82,-0.21,1.63,3.26
2.382267951965332,-1.45,-0.17,2.26,2.69
2.3932061195373535,1.13,0.64,3.45,3.68
2.4022011756896973,3.34,1.09,3.52,4.97
2.412890911102295,3.16,0.97,2.74,4.29
2.422490119934082,0.68,0.75,1.99,2.23
2.4351720809936523,-2.4,0.6,1.5,2.89
2.4422459602355957,-4.92,0.68,1.34,5.14
2.452712059020996,-6.56,1.48,2.06,7.03
2.46337890625,-6.7,3.3,3.69,8.33
2.4729509353637695,-5.94,6.58,5.7,10.53
2.4824719429016113,-5.5,8.14,4.94,10.99
2.4924559593200684,-5.75,5.15,1.22,7.81
2.5025582313537598,-5.45,0.51,-1.41,5.65
2.512543201446533,-1.06,-4.71,-5.14,7.05
2.5240530967712402,3.95,-6.6,-8.12,11.18
2.535428047180176,5.64,-2.58,-3.61,7.17
2.5425071716308594,4.97,2.63,3.38,6.56
2.5530271530151367,4.57,3.38,4.92,7.51
2.5625991821289062,4.55,1.09,2.15,5.14
2.5735700130462646,3.46,-1.11,-1.76,4.03
2.583449125289917,0.33,-0.95,-3.75,3.88
2.5929360389709473,-3.67,0.92,-3.13,4.91
2.603034019470215,-6.32,1.96,-1.76,6.84
2.6131880283355713,-6.73,1.25,-0.28,6.85
2.622929096221924,-5.22,-0.56,1.8,5.54
2.6362640857696533,-2.81,-2.25,4.01,5.38
2.642803192138672,-0.43,-2.52,5.71,6.25
2.653538227081299,1.21,-1.69,5.43,5.81
2.66335391998291,1.91,-0.75,2.39,3.15
2.672858238220215,2.14,0.14,-1.72,2.74
2.683763027191162,2.25,1.22,-4.09,4.82
2.6930720806121826,2.17,1.86,-3.59,4.58
2.703273057937622,1.74,1.24,-1.42,2.56
2.7134900093078613,1.07,-0.21,0.55,1.22
2.7231340408325195,0.14,-1.01,1.51,1.82
2.73612904548645,-0.92,-0.76,1.39,1.83
2.7430050373077393,-1.76,-0.28,0.37,1.82
2.753683090209961,-1.5,-0.01,-0.74,1.67
2.763076066970825,-0.32,0.3,-1.13,1.21
2.7730510234832764,0.82,0.2,-1.28,1.53
2.7832701206207275,1.42,0.25,-0.96,1.73
2.794152021408081,1.54,0.37,-0.48,1.65
2.804178237915039,1.23,0.25,-0.33,1.29
2.815134048461914,0.63,0.09,-0.37,0.73
2.8234071731567383,0.0,0.1,-0.28,0.29
2.8365681171417236,-0.38,0.18,0.05,0.42
2.843233108520508,-0.38,0.0,0.31,0.49
2.8538122177124023,-0.13,-0.27,0.32,0.43
2.863262176513672,0.15,-0.15,0.31,0.37
2.873373031616211,0.34,0.01,0.22,0.4
2.8833200931549072,0.46,0.0,0.14,0.48
2.8942410945892334,0.54,0.06,0.21,0.58
2.903412103652954,0.47,0.01,0.22,0.51
2.9147629737854004,0.27,-0.08,0.21,0.35
2.9234580993652344,0.15,0.03,0.34,0.37
2.935612201690674,0.1,-0.07,0.4,0.41
2.9444830417633057,0.11,-0.12,0.43,0.45
2.954101085662842,0.08,0.02,0.44,0.44
2.9634010791778564,0.04,0.02,0.13,0.13
2.974065065383911,0.13,-0.01,-0.37,0.39
2.9836292266845703,0.34,0.21,-0.18,0.43
2.995284080505371,0.5,0.07,0.27,0.57
3.0040290355682373,0.41,-0.25,0.89,1.01
3.0141470432281494,0.17,-0.41,1.26,1.33
3.0238280296325684,-0.15,-0.26,1.42,1.45
3.036713123321533,-0.38,-0.11,1.24,1.3
3.043632984161377,-0.42,-0.01,1.09,1.16
3.0545220375061035,-0.36,0.1,0.88,0.95
3.0637221336364746,-0.28,0.12,0.44,0.53
3.0749471187591553,-0.13,0.2,0.0,0.23
3.083786964416504,0.05,0.41,-0.07,0.41
3.0948240756988525,0.12,0.46,0.18,0.5
3.1038289070129395,-0.09,0.32,0.49,0.59
3.1136322021484375,-0.53,0.32,0.79,1.0
3.124397039413452,-1.12,0.27,0.8,1.4
3.1371850967407227,-1.62,0.35,0.82,1.84
3.1438541412353516,-1.84,0.67,1.09,2.24
3.1542580127716064,-1.92,0.88,1.23,2.44
3.163827896118164,-1.95,1.24,1.57,2.79
3.1750850677490234,-1.93,1.83,2.0,3.32
3.1840150356292725,-1.94,2.62,2.11,3.88
3.1940560340881348,-1.92,3.54,1.43,4.27
3.2060770988464355,-1.66,4.62,0.44,4.92
3.216604232788086,-1.2,6.16,0.53,6.29
3.224717140197754,-0.7,8.42,1.72,8.62
3.2374191284179688,-0.63,9.42,2.93,9.88
3.2451090812683105,-1.42,8.04,3.41,8.84
3.2545270919799805,-2.49,6.0,4.07,7.66
3.265109062194824,-3.5,3.78,4.32,6.72
3.275236129760742,-4.1,2.51,3.43,5.9
3.284235954284668,-2.28,3.96,3.23,5.59
3.29465913772583,1.17,4.54,2.6,5.36
3.3059401512145996,1.96,3.86,0.75,4.39
3.3168070316314697,-1.9,3.75,0.08,4.2
3.3248071670532227,-9.35,1.6,-0.69,9.51
3.3388900756835938,-16.88,-2.51,-0.69,17.07
3.3442702293395996,-20.57,-6.12,-0.08,21.46
3.355109214782715,-20.91,-5.05,3.22,21.75
3.3657212257385254,-21.38,-3.38,11.26,24.39
3.37493896484375,-20.62,-4.14,10.22,23.38
3.384453058242798,-16.81,-2.74,3.68,17.42
3.3952701091766357,-13.27,-2.27,2.24,13.64
3.4049291610717773,-8.91,-2.79,0.39,9.34
3.417011022567749,-2.43,-3.33,-4.44,6.05
3.424818992614746,2.27,-0.5,-5.36,5.84
3.4388341903686523,3.52,2.82,-1.96,4.91
3.444359064102173,3.15,2.93,-0.19,4.3
3.4553189277648926,2.16,0.48,-0.49,2.26
3.4660940170288086,0.23,-1.59,-0.52,1.68
3.4757680892944336,-2.08,-1.64,0.64,2.72
3.4860849380493164,-3.69,-0.65,1.86,4.18
3.4950270652770996,-3.96,0.34,2.67,4.78
3.5051910877227783,-2.97,1.08,3.25,4.53
3.5178310871124268,-1.35,1.59,3.46,4.04
3.525144100189209,0.4,2.15,3.36,4.0
3.5383381843566895,2.06,2.92,3.08,4.71
3.544757127761841,3.54,3.9,2.72,5.92
3.5553600788116455,4.69,4.29,1.29,6.48
3.566352128982544,5.43,4.09,0.38,6.8
3.5748729705810547,5.83,3.87,0.83,7.04
3.5849452018737793,6.19,3.13,1.73,7.14
3.5953330993652344,7.02,1.98,2.77,7.8
3.6057372093200684,8.47,0.48,3.35,9.12
3.617770195007324,10.38,-1.02,3.48,10.99
3.625092029571533,12.44,-2.11,3.6,13.12
3.6425981521606445,14.81,-3.11,3.36,15.5
3.644742965698242,17.51,-4.63,3.08,18.37
3.6561269760131836,20.13,-6.31,3.13,21.32
3.6666369438171387,22.17,-4.38,1.42,22.64
3.6757280826568604,29.71,-0.96,-4.19,30.01
3.6852359771728516,38.07,6.56,0.94,38.64
3.695080041885376,29.15,8.57,4.48,30.71
3.7051501274108887,10.51,4.77,-7.44,13.73
3.7183780670166016,-14.86,3.16,-24.78,29.06
3.725497245788574,-27.94,5.91,-19.85,34.77
3.742791175842285,-18.4,9.03,-4.37,20.95
3.744936943054199,-7.59,5.59,6.73,11.58
3.7558040618896484,-4.71,-2.64,7.05,8.88
3.767033100128174,-1.18,-10.53,6.29,12.32
3.776369094848633,6.56,-10.74,7.26,14.52
3.7858030796051025,13.69,-2.41,9.8,17.0
3.795785903930664,15.25,1.38,6.12,16.49
3.805851936340332,10.56,-0.4,-6.19,12.24
3.8189549446105957,4.36,3.31,-10.51,11.85
3.8256540298461914,-2.67,7.79,-7.8,11.34
3.8451151847839355,-9.93,4.33,-6.35,12.55
3.8470821380615234,-11.33,-2.08,-1.16,11.57
3.8555479049682617,-6.46,-5.0,7.26,10.92
3.8674259185791016,-0.5,-3.93,13.19,13.77
3.8754351139068604,2.95,-3.44,11.77,12.61
3.886085033416748,4.06,-2.44,3.87,6.11
3.8956661224365234,3.57,0.01,-4.43,5.68
3.9060111045837402,1.28,2.73,-7.66,8.23
3.915937900543213,-1.31,3.35,-5.98,6.97
3.925678014755249,-2.86,0.8,-2.85,4.11
3.9440979957580566,-2.81,-0.86,1.12,3.14
3.9455881118774414,-1.64,-0.8,4.17,4.55
3.955754041671753,-0.34,-1.07,4.37,4.51
3.9661290645599365,0.58,-0.89,2.63,2.83
3.975727081298828,0.89,0.03,0.25,0.92
3.9868059158325195,0.56,0.7,-1.63,1.86
3.9957451820373535,-0.12,0.9,-1.98,2.17
4.005810022354126,-0.75,0.44,-1.37,1.62
4.017750024795532,-0.71,0.1,-0.45,0.84
4.027465105056763,-0.1,0.18,0.32,0.38
4.043777942657471,0.14,0.11,0.49,0.52
4.045959949493408,-0.35,0.2,0.58,0.7
4.056992053985596,-1.14,0.21,0.76,1.38
4.06805419921875,-1.66,0.22,0.95,1.92
4.075990200042725,-1.71,0.32,1.04,2.02
4.0860209465026855,-1.43,0.21,0.84,1.67
4.096958160400391,-1.05,0.33,0.63,1.26
4.106446027755737,-0.89,0.67,0.48,1.21
4.116472244262695,-1.05,1.04,0.42,1.53
4.126542091369629,-1.39,1.85,0.66,2.4
4.145633220672607,-1.92,2.97,0.74,3.61
4.147696018218994,-2.68,3.28,-0.03,4.23
4.156205177307129,-3.2,3.9,-0.93,5.12
4.1661601066589355,-2.74,5.86,-1.73,6.69
4.176238059997559,-1.9,9.01,-1.96,9.41
4.186309099197388,-2.33,12.97,-1.55,13.26
4.197003126144409,-4.72,16.42,-1.34,17.13
4.206707000732422,-8.29,18.75,-1.01,20.52
4.216790199279785,-11.21,19.43,-1.12,22.45
4.226923942565918,-12.45,19.1,-1.06,22.82
4.244060039520264,-12.06,18.78,-1.33,22.35
4.246544122695923,-12.1,14.09,-4.87,19.2
4.25632905960083,-10.61,10.09,-3.46,15.04
4.2664361000061035,-7.17,9.99,4.07,12.95
4.276346206665039,-7.0,6.39,5.69,11.05
4.286876201629639,-7.75,2.14,2.87,8.53
4.296816110610962,-8.0,1.43,1.7,8.3
4.306958198547363,-9.5,0.75,-0.52,9.54
4.316771030426025,-9.92,0.58,-2.04,10.14
4.326735973358154,-10.08,1.1,-2.04,10.34
4.345332145690918,-12.46,-1.17,-2.57,12.77
4.34640908241272,-15.36,-4.96,-2.41,16.31
4.3566999435424805,-16.53,-6.63,3.67,18.18
4.367599964141846,-16.4,-7.47,7.12,19.37
4.376523971557617,-15.15,-6.4,2.62,16.65
4.3865251541137695,-13.77,-4.13,-0.8,14.39
4.396718978881836,-12.89,-2.9,-2.51,13.44
4.407377243041992,-11.52,-2.83,-3.88,12.48
4.417007923126221,-9.47,-2.72,-4.77,10.94
4.426897048950195,-7.25,-2.13,-4.91,9.01
4.445188045501709,-5.09,-1.32,-4.68,7.03
4.446579933166504,-3.22,-0.58,-4.64,5.67
4.457931995391846,-1.79,-0.03,-4.83,5.15
4.46687912940979,-0.94,0.32,-5.08,5.17
4.476836204528809,-0.81,0.63,-4.74,4.84
4.486817121505737,-1.63,0.73,-3.93,4.31
4.497420072555542,-2.99,0.72,-2.84,4.18
4.5080180168151855,-3.96,1.05,-1.5,4.36
4.517399072647095,-4.06,1.94,-0.23,4.5
4.52715802192688,-3.38,3.34,0.41,4.76
4.544845104217529,-2.11,5.05,0.25,5.47
4.547244071960449,-0.36,6.84,-0.51,6.86
4.557117938995361,2.03,8.82,-1.41,9.15
4.5669660568237305,5.09,10.8,-2.17,12.13
4.577785015106201,8.47,12.43,-2.39,15.23
4.587237119674683,11.4,13.03,-2.05,17.43
4.597686052322388,13.13,12.52,-0.87,18.16
4.607664108276367,13.74,11.02,0.68,17.62
4.6171369552612305,14.19,8.85,1.82,16.82
4.627617120742798,15.38,6.22,1.78,16.68
4.645771026611328,17.24,3.62,0.87,17.63
4.646973133087158,20.04,1.78,0.57,20.12
4.657272100448608,24.37,0.5,1.27,24.4
4.667866230010986,28.94,-1.33,2.24,29.05
4.677980899810791,31.17,-3.16,3.84,31.56
4.687329053878784,28.63,-4.18,6.29,29.6
4.697237014770508,23.26,-4.64,5.89,24.43
4.707336902618408,19.1,-5.82,3.35,20.24
4.718073129653931,15.91,-0.14,5.33,16.77
4.727751016616821,7.15,9.79,3.8,12.7
4.7455830574035645,-19.54,8.8,-30.67,37.41
4.747270107269287,-35.77,17.22,-46.11,60.84
4.757374048233032,-17.81,12.35,-5.93,22.46
4.767439126968384,-1.27,2.79,9.34,9.83
4.7776288986206055,8.48,1.69,14.28,16.69
4.788069248199463,14.46,-9.02,11.47,20.54
4.79783296585083,20.51,-13.33,4.6,24.88
4.808046102523804,24.66,-1.68,6.11,25.46
4.8179590702056885,17.91,4.04,9.15,20.51
4.828114986419678,8.73,0.33,9.69,13.04
4.845641136169434,-1.6,-5.89,-2.72,6.68
4.84768009185791,-8.17,-2.35,-9.01,12.38
4.857697010040283,-8.99,9.14,-5.65,14.01
4.868709087371826,-14.21,7.31,-16.95,23.29
4.877835035324097,-8.46,6.75,-10.16,14.84
4.88959002494812,3.4,1.72,-1.05,3.95
4.898763179779053,10.02,-7.6,3.4,13.02
4.908402919769287,10.48,-7.09,9.81,16.01
4.918090105056763,5.97,-1.47,11.43,12.97
4.928627014160156,-2.22,-1.95,3.31,4.43
4.946094036102295,-8.49,-0.02,-4.07,9.41
4.947912216186523,-9.2,3.33,-4.86,10.92
4.957905054092407,-5.38,1.18,-2.97,6.25
4.968348979949951,0.61,-1.31,0.9,1.7
4.977912902832031,4.49,-1.41,3.27,5.73
4.987812042236328,3.81,-1.0,2.31,4.56
4.998687028884888,0.45,-0.26,0.34,0.62
5.00859808921814,-2.52,0.34,-0.82,2.67
5.018506050109863,-3.47,0.51,-1.0,3.64
5.02861213684082,-2.38,0.45,-0.54,2.48
5.047468185424805,-0.45,0.07,0.02,0.45
5.049655914306641,0.94,-0.27,0.32,1.02
5.058145046234131,1.22,-0.09,0.41,1.29
5.0681471824646,0.55,0.16,0.38,0.68
5.078296184539795,-0.49,0.18,0.31,0.6
5.0882251262664795,-1.27,0.29,0.36,1.35
5.098231077194214,-1.42,0.36,0.36,1.5
5.10813307762146,-0.99,0.29,0.23,1.05
5.119010925292969,-0.29,0.29,0.03,0.41
5.129295110702515,0.27,0.46,-0.12,0.54
5.14666223526001,0.36,0.6,-0.14,0.71
5.148218154907227,-0.03,0.8,0.03,0.8
5.1582231521606445,-0.66,1.38,0.38,1.57
5.168743133544922,-1.6,1.31,0.56,2.14
5.178429126739502,-2.45,1.26,0.86,2.88
5.1892991065979,-2.78,1.52,1.22,3.39
5.199214935302734,-2.67,1.68,1.29,3.4
5.208872079849243,-2.32,2.37,1.02,3.46
5.218873023986816,-2.11,3.43,0.21,4.03
5.228936195373535,-2.21,4.5,-1.1,5.13
5.2486560344696045,-2.63,5.74,-2.49,6.78
5.25057315826416,-3.08,7.27,-3.36,8.58
5.258470058441162,-3.5,9.02,-3.3,10.22
5.268709182739258,-4.14,11.06,-2.53,12.07
5.279007911682129,-5.33,12.89,-1.84,14.06
5.289745092391968,-6.87,14.1,-1.81,15.78
5.298964977264404,-8.05,15.11,-1.88,17.22
5.309819221496582,-8.7,16.21,-2.36,18.54
5.319286108016968,-9.34,15.8,-4.59,18.91
5.329314231872559,-9.95,13.96,-7.09,18.55
5.346174240112305,-10.05,12.65,-5.54,17.07
5.3489861488342285,-9.25,10.19,-1.52,13.84
5.358826160430908,-8.56,4.59,-0.25,9.71
5.368781089782715,-8.45,-1.74,0.09,8.62
5.378866195678711,-7.05,-6.47,7.95,12.44
5.390157222747803,-6.63,-8.92,8.4,13.93
5.399686098098755,-9.45,-7.36,0.28,11.98
5.409298896789551,-13.47,-4.06,-4.2,14.68
5.419547080993652,-16.12,-2.21,-5.79,17.27
5.429237127304077,-15.72,-1.83,-7.04,17.32
5.447184085845947,-11.63,-2.13,-6.7,13.58
5.448712110519409,-7.03,-3.2,-6.35,9.99
5.460005044937134,-4.12,-4.82,-7.32,9.68
5.468903064727783,-2.92,-4.72,-7.01,8.94
5.478950023651123,-3.3,-3.01,-5.56,7.13
5.4904420375823975,-5.06,-2.24,-5.72,7.95
5.5001702308654785,-7.65,-2.87,-7.33,10.97
5.508975028991699,-10.13,-3.08,-8.14,13.35
5.521022081375122,-11.4,-2.35,-7.55,13.87
5.529521942138672,-10.58,-1.17,-6.51,12.47
5.546485900878906,-7.96,-0.1,-6.22,10.1
5.5493669509887695,-4.21,0.41,-6.97,8.15
5.559277057647705,-0.06,0.79,-8.08,8.11
5.56922721862793,3.46,2.0,-8.56,9.44
5.579276084899902,5.1,3.53,-8.41,10.44
5.592580080032349,4.6,4.27,-8.55,10.6
5.5996551513671875,2.58,4.06,-8.77,10.0
5.60983419418335,0.46,3.67,-7.67,8.51
5.619697093963623,-0.44,3.53,-5.54,6.58
5.630641937255859,0.1,3.61,-3.56,5.07
5.649324893951416,1.34,4.03,-2.67,5.01
5.651403903961182,2.52,4.87,-3.25,6.37
5.659475088119507,3.42,6.06,-4.91,8.51
5.670046091079712,4.39,7.51,-6.03,10.58
5.679495096206665,5.72,8.77,-5.8,11.96
5.69119119644165,7.47,9.68,-4.37,12.98
5.700360059738159,9.73,10.03,-2.82,14.25
5.71002721786499,12.29,9.84,-2.07,15.87
5.719985008239746,14.74,8.81,-2.21,17.31
5.730253219604492,16.98,6.7,-2.59,18.43
5.748903036117554,19.66,3.82,-2.32,20.16
5.750536918640137,22.83,0.13,-1.17,22.86
5.7603912353515625,25.54,-3.26,1.4,25.78
5.770208120346069,26.39,-4.16,4.86,27.15
5.7798309326171875,24.93,-4.1,6.65,26.12
5.791612148284912,21.02,-2.76,8.29,22.76
5.799767017364502,14.77,6.74,12.05,20.21
5.809652090072632,3.8,10.52,5.47,12.45
5.820415019989014,-12.99,2.45,-15.63,20.47
5.829683065414429,-22.39,5.46,-23.06,32.6
5.846386909484863,-13.91,10.88,-7.99,19.38
5.850091934204102,-3.29,4.92,4.68,7.54
5.85993504524231,4.86,-6.25,7.54,10.93
5.87035608291626,12.92,-13.17,8.66,20.38
5.879899978637695,17.09,-3.73,10.47,20.38
5.8920769691467285,18.14,5.73,11.78,22.37
5.900219917297363,15.13,0.22,9.18,17.69
5.910473108291626,6.04,-6.4,-2.27,9.08
5.920482158660889,-3.36,-1.85,-12.82,13.38
5.9305150508880615,-4.53,10.96,-6.38,13.46
5.948764085769653,-9.99,7.96,-13.7,18.73
5.950103044509888,-8.98,3.14,-9.49,13.43
5.960048198699951,-0.47,0.25,1.48,1.57
5.970599174499512,5.48,-6.24,5.66,10.05
5.980131149291992,8.82,-4.47,9.61,13.78
5.991116046905518,7.84,-0.09,7.12,10.59
6.0001749992370605,2.45,-0.48,-2.53,3.55
6.0109992027282715,-2.42,2.06,-6.64,7.36
6.02062201499939,-5.24,3.11,-4.95,7.85
6.030763149261475,-5.13,0.04,-0.84,5.19
6.0486159324646,-1.91,-2.1,4.24,5.1
6.0504889488220215,0.85,-2.21,6.27,6.7
6.060756206512451,1.21,-1.5,3.32,3.83
6.070713996887207,0.27,0.2,-1.75,1.78
6.080981016159058,-0.43,1.61,-4.45,4.75
6.09030818939209,-0.55,1.11,-3.02,3.26
6.10096001625061,-0.58,-0.5,0.81,1.11
6.11076021194458,-1.13,-1.42,3.72,4.13
6.120861053466797,-2.18,-1.45,3.96,4.74
6.130884170532227,-2.86,-0.85,2.25,3.73
6.150062084197998,-2.45,-0.2,0.08,2.45
6.152359962463379,-1.24,0.29,-1.17,1.72
6.160459995269775,-0.04,0.48,-1.08,1.18
6.170496940612793,0.41,0.24,-0.31,0.56
6.181329011917114,-0.19,0.12,0.49,0.53
6.191138029098511,-1.33,0.22,0.85,1.59
6.20077109336853,-2.05,0.35,0.75,2.21
6.21140193939209,-1.9,0.61,0.52,2.06
6.2214531898498535,-1.26,0.67,0.18,1.43
6.231177091598511,-0.64,0.87,0.14,1.08
6.248739242553711,-0.18,1.09,0.05,1.1
6.250738143920898,0.31,2.23,0.17,2.25
6.260653972625732,0.42,2.95,-0.31,2.99
6.270734071731567,-0.75,0.99,-1.28,1.78
6.280908107757568,-1.52,0.08,-1.21,1.94
6.292675971984863,-1.19,0.72,-0.1,1.39
6.301624059677124,-0.52,1.52,0.61,1.71
6.311247110366821,-0.22,1.94,-0.22,1.96
6.321226119995117,-0.31,2.52,-1.91,3.17
6.331838130950928,-0.67,3.49,-2.95,4.61
6.349868059158325,-1.08,4.51,-3.24,5.65
6.352070093154907,-1.45,5.24,-3.13,6.27
6.360947132110596,-1.93,5.81,-2.97,6.8
6.370958089828491,-2.59,6.75,-2.71,7.72
6.380971908569336,-3.31,8.23,-1.59,9.01
6.3925940990448,-4.44,10.63,-0.18,11.52
6.401636123657227,-6.28,12.06,-0.85,13.62
6.411657094955444,-8.68,11.74,-3.42,14.99
6.421656131744385,-10.81,11.71,-4.23,16.48
6.431692123413086,-10.9,12.39,-4.13,17.01
6.449385166168213,-9.17,11.43,-2.25,14.82
6.451073169708252,-8.41,8.81,-1.09,12.22
6.461184024810791,-10.32,8.65,-0.82,13.49
6.471207141876221,-11.98,11.07,0.69,16.32
6.4813032150268555,-12.33,9.02,0.56,15.28
6.491886138916016,-12.99,4.18,0.72,13.66
6.5019190311431885,-12.82,1.56,2.25,13.1
6.511737108230591,-11.99,1.51,2.53,12.34
6.521487236022949,-10.52,3.01,2.18,11.15
6.532005071640015,-8.42,4.35,2.82,9.88
6.551121234893799,-6.44,3.01,1.45,7.25
6.553301095962524,-5.33,-0.15,-2.59,5.92
6.56135106086731,-5.8,-2.84,-6.67,9.28
6.572433948516846,-6.79,-3.42,-7.84,10.92
6.581471920013428,-8.06,-1.87,-5.76,10.08
6.592220067977905,-9.38,-0.75,-3.33,9.98
6.601738929748535,-9.8,-1.53,-2.94,10.34
6.611936092376709,-9.3,-3.0,-3.08,10.24
6.622090101242065,-8.82,-4.6,-3.05,10.4
6.632274150848389,-9.18,-5.68,-1.21,10.86
6.6513590812683105,-10.24,-5.8,1.45,11.85
6.653602123260498,-11.31,-5.4,1.56,12.62
6.661559104919434,-11.81,-4.42,-0.12,12.61
6.671597957611084,-11.54,-2.61,-1.29,11.9
6.68166708946228,-10.81,-0.76,-2.28,11.07
6.692090034484863,-9.75,0.65,-3.11,10.25
6.702763080596924,-8.02,1.56,-4.15,9.16
6.712303161621094,-5.78,2.78,-5.4,8.38
6.722098112106323,-3.41,4.88,-5.95,8.41
6.732046127319336,-1.29,7.4,-6.11,9.68
6.749904155731201,0.34,9.48,-6.71,11.61
6.752021074295044,1.03,10.96,-7.01,13.05
6.761967182159424,0.56,12.12,-6.62,13.82
6.7724010944366455,-0.01,13.12,-6.12,14.47
6.782681941986084,1.47,14.16,-6.51,15.65
6.792448043823242,6.28,15.01,-8.61,18.4
6.802130222320557,14.84,16.07,-11.09,24.52
6.812372207641602,25.93,16.61,-11.26,32.78
6.822047233581543,35.9,13.19,-11.4,39.9
6.832229137420654,40.57,7.87,-9.37,42.37
6.842295169830322,37.69,2.26,-5.18,38.11
6.851978063583374,30.77,-3.9,-1.29,31.04
6.8622331619262695,25.28,-9.11,7.42,27.87
6.8723320960998535,25.05,-11.34,11.43,29.77
6.882461071014404,25.06,-7.4,4.54,26.52
6.8925840854644775,20.86,2.8,7.64,22.39
6.902316093444824,15.9,11.93,11.52,22.97
6.914151191711426,8.45,6.24,0.85,10.53
6.92223596572876,-1.1,1.24,-14.42,14.51
6.9329681396484375,-13.16,6.45,-25.49,29.4
6.94419002532959,-17.72,12.45,-20.5,29.82
6.952444076538086,-9.57,9.17,-0.94,13.28
6.962060928344727,-1.53,3.24,5.68,6.71
6.9726481437683105,2.68,-3.48,8.0,9.12
6.98238205909729,6.94,-14.58,7.98,18.01
6.993621110916138,13.5,-9.16,9.9,19.08
7.003080129623413,16.29,1.55,7.99,18.21
7.014345169067383,16.36,5.16,7.76,18.82
7.022845029830933,9.53,-3.31,-8.25,13.03
7.032989025115967,0.73,-2.46,-16.64,16.83
7.051661968231201,-2.18,11.42,-3.68,12.19
7.053740978240967,-11.57,6.69,-10.45,16.96
7.062891006469727,-13.93,1.74,-7.0,15.68
7.073515892028809,-6.41,-1.32,2.36,6.95
7.082531929016113,1.1,-5.5,7.8,9.6
7.093225955963135,5.75,-6.21,11.01,13.88
7.103093147277832,7.72,-2.66,11.04,13.73
7.115012168884277,5.57,-1.6,4.34,7.24
7.123057126998901,0.88,-1.05,-4.12,4.34
7.133238077163696,-2.65,2.19,-6.87,7.68
7.144954204559326,-3.93,3.77,-5.38,7.65
7.153266906738281,-3.19,1.9,-3.54,5.13
7.163679122924805,-1.04,-0.21,-1.38,1.74
7.173788070678711,1.26,-0.75,1.1,1.83
7.182775020599365,2.62,-0.67,2.44,3.64
7.193131923675537,2.46,-0.72,2.42,3.52
7.204408168792725,0.96,-0.7,1.68,2.05
7.215488910675049,-0.86,-0.43,0.88,1.3
7.223135948181152,-2.06,-0.01,0.13,2.06
7.233232021331787,-2.05,0.22,-0.64,2.15
7.2453789710998535,-0.95,0.35,-1.12,1.5
7.254631996154785,0.31,0.51,-1.1,1.25
7.264158248901367,0.9,0.49,-0.69,1.23
7.27399206161499,0.5,0.12,-0.09,0.52
7.2828569412231445,-0.52,-0.19,0.54,0.77
7.293333053588867,-1.54,-0.21,1.05,1.87
7.305310249328613,-2.14,-0.08,1.17,2.44
7.315936088562012,-2.13,0.04,0.91,2.31
7.323252201080322,-1.79,0.07,0.53,1.86
7.333485126495361,-1.46,0.29,0.29,1.51
7.345686912536621,-1.39,0.48,0.17,1.48
7.354356050491333,-1.51,0.51,0.11,1.59
7.364645004272461,-1.66,0.79,0.3,1.86
7.374200105667114,-1.82,1.21,0.69,2.29
7.383065223693848,-1.91,1.56,0.97,2.65
7.393092155456543,-1.92,2.17,1.18,3.12
7.404124021530151,-2.11,3.83,1.7,4.69
7.416527032852173,-2.8,5.98,2.21,6.96
7.423451900482178,-4.79,4.37,1.52,6.65
7.433777093887329,-6.64,5.46,1.46,8.71
7.445484161376953,-6.47,9.51,1.17,11.56
7.454334020614624,-5.34,10.92,0.36,12.16
7.464992046356201,-4.4,11.85,-0.65,12.65
7.473955154418945,-4.63,14.04,-0.86,14.8
7.483983993530273,-6.01,15.32,-0.88,16.48
7.493909120559692,-8.04,15.92,-0.87,17.85
7.504091024398804,-10.22,16.13,-1.42,19.14
7.515034198760986,-11.58,15.62,-1.81,19.52
7.52507209777832,-11.47,15.53,0.5,19.31
7.533511161804199,-11.93,12.78,0.99,17.51
7.544820070266724,-16.42,5.98,-2.86,17.7
7.553760051727295,-20.81,0.53,-6.58,21.83
7.565232038497925,-18.73,0.96,-2.8,18.96
7.574732065200806,-13.34,1.15,1.76,13.5
7.583581924438477,-9.31,-2.34,-1.46,9.7
7.5936291217803955,-3.92,-4.0,-7.17,9.09
7.604119062423706,0.49,-3.16,-10.9,11.35
7.616278171539307,0.76,-0.95,-11.28,11.34
7.623885154724121,-1.75,1.28,-9.37,9.61
7.634159088134766,-4.96,0.54,-9.41,10.65
7.646233081817627,-8.31,-2.5,-11.61,14.49
7.655292987823486,-11.77,-4.74,-12.42,17.75
7.665733098983765,-14.7,-5.32,-10.96,19.09
7.675022125244141,-16.11,-4.87,-7.68,18.49
7.6837639808654785,-15.55,-3.88,-5.37,16.9
7.694587230682373,-13.4,-2.75,-6.88,15.31
7.704381942749023,-11.01,-2.43,-9.99,15.06
7.717386245727539,-7.71,-2.27,-12.83,15.13
7.724050998687744,-4.18,-0.94,-14.94,15.54
7.735100030899048,-1.46,1.96,-15.07,15.26
7.746252059936523,0.21,4.58,-14.34,15.05
7.755108118057251,1.23,5.06,-14.17,15.09
7.764949083328247,1.4,3.74,-13.41,13.99
7.774074077606201,0.37,2.33,-11.21,11.45
7.784128189086914,-1.28,1.9,-8.12,8.43
7.793936014175415,-2.7,2.02,-5.61,6.54
7.8040971755981445,-3.44,2.76,-4.3,6.15
7.814446926116943,-3.55,4.38,-3.89,6.84
7.825550079345703,-2.96,6.56,-4.3,8.38
7.834590911865234,-1.6,9.54,-4.94,10.86
7.8468451499938965,1.03,13.27,-5.76,14.5
7.855410099029541,5.5,17.63,-7.09,19.78
7.866393089294434,11.78,21.29,-8.52,25.78
7.874866962432861,18.71,21.03,-6.48,28.88
7.884458065032959,23.32,17.09,-3.2,29.08
7.894809246063232,24.66,12.27,0.54,27.54
7.904320240020752,23.21,6.86,3.98,24.52
7.9150309562683105,19.58,1.59,4.88,20.24
7.924711227416992,17.76,-2.87,8.01,19.69
7.934690952301025,21.4,-8.68,13.77,26.88
7.946386098861694,26.86,-11.96,7.86,30.43
7.955790996551514,29.85,-8.16,2.67,31.06
7.966513156890869,30.21,-1.45,2.78,30.37
7.9750800132751465,26.79,1.16,2.32,26.91
7.984559059143066,20.79,0.78,2.03,20.9
7.994579076766968,11.81,6.25,10.55,17.02
8.005167961120605,-4.54,10.65,9.34,14.87
8.01579999923706,-28.96,-6.95,-16.07,33.84
8.025959968566895,-41.53,-1.27,-28.78,50.54
8.035388946533203,-21.1,20.71,-0.87,29.57
8.045985221862793,-1.0,11.18,17.59,20.86
8.055848121643066,8.99,-0.13,21.9,23.67
8.064563035964966,5.97,-9.47,11.22,15.84
8.074787139892578,10.37,-14.87,0.61,18.13
8.085215091705322,21.98,-9.0,-2.56,23.88
8.095274925231934,27.71,1.06,-0.85,27.74
8.10562801361084,23.83,5.2,0.9,24.4
8.115173101425171,13.26,3.58,-1.4,13.8
8.12508511543274,-0.19,-2.39,-13.23,13.44
8.136009216308594,-5.88,3.99,-7.19,10.1
8.147478103637695,-9.28,7.54,-3.18,12.37
8.156700134277344,-13.87,0.92,-7.8,15.93
8.16484022140503,-11.75,0.01,-3.78,12.34
8.175118923187256,-5.75,1.3,2.66,6.46
8.184906005859375,-0.78,-0.53,5.22,5.3
8.195174217224121,3.24,-4.1,5.2,7.37
8.205758094787598,6.7,-5.4,4.72,9.81
8.215731143951416,8.11,-2.83,5.03,9.95
8.22511100769043,6.12,-0.34,4.4,7.54
8.235469102859497,2.0,-0.3,1.65,2.61
8.245850086212158,-1.92,-0.65,-1.54,2.54
8.255105972290039,-4.15,0.45,-2.62,4.92
8.265372037887573,-4.78,1.65,-2.56,5.66
8.276946067810059,-4.27,1.6,-2.66,5.27
8.28605604171753,-2.73,0.85,-2.22,3.61
8.296004056930542,-0.66,0.24,-0.91,1.14
8.305871963500977,1.0,-0.28,0.7,1.25
8.316105127334595,1.67,-0.86,1.89,2.66
8.32580304145813,1.36,-1.12,2.45,3.01
8.335758209228516,0.43,-0.81,2.25,2.42
8.345967054367065,-0.67,-0.28,1.23,1.42
8.355820178985596,-1.58,0.1,-0.17,1.59
8.366068124771118,-1.96,0.48,-1.3,2.4
8.375988960266113,-1.78,0.75,-1.7,2.57
8.385687112808228,-1.29,0.69,-1.2,1.89
8.396162033081055,-0.9,0.3,-0.23,0.97
8.405734062194824,-0.77,-0.01,0.76,1.08
8.41585397720337,-0.86,0.01,1.43,1.66
8.425491094589233,-0.93,0.12,1.43,1.71
8.435736179351807,-0.93,0.48,0.99,1.44
8.44837999343872,-1.05,1.02,0.43,1.52
8.457487106323242,-1.17,1.37,-0.2,1.81
8.466122150421143,-1.09,3.26,0.67,3.5
8.475612163543701,-2.04,4.89,2.0,5.66
8.486159086227417,-5.06,2.52,2.06,6.01
8.496267080307007,-6.67,1.9,2.45,7.35
8.507004022598267,-5.68,3.97,2.61,7.4
8.515932083129883,-3.72,5.05,0.4,6.28
8.526180028915405,-1.35,5.87,-3.94,7.19
8.536186218261719,-0.1,8.91,-6.19,10.84
8.547798156738281,-0.47,12.71,-5.42,13.82
8.558435916900635,-2.02,14.86,-4.39,15.62
8.565925121307373,-4.68,15.58,-3.86,16.71
8.576028108596802,-7.23,16.11,-3.47,17.99
8.586158037185669,-8.87,16.48,-2.98,18.95
8.595932960510254,-9.28,16.24,-3.68,19.06
8.606789112091064,-8.25,15.76,-4.18,18.27
8.616093158721924,-7.48,15.12,-2.95,17.12
8.62614107131958,-11.12,10.29,-3.56,15.56
8.636402130126953,-17.88,2.49,-6.98,19.35
8.64808702468872,-18.79,-1.62,-4.67,19.42
8.658836126327515,-12.36,-2.01,10.59,16.39
8.665982246398926,-8.94,-5.16,12.95,16.56
8.677186965942383,-12.2,-7.24,0.48,14.19
8.686019897460938,-13.04,-5.81,-4.31,14.91
8.697026014328003,-11.55,-2.82,-4.19,12.6
8.706006050109863,-10.29,-1.44,-4.02,11.14
8.716867923736572,-9.31,-1.82,-4.04,10.31
8.726861953735352,-8.41,-3.29,-4.14,9.93
8.736583232879639,-7.9,-4.78,-3.38,9.83
8.748004913330078,-8.25,-5.74,-1.27,10.13
8.759201049804688,-9.25,-6.24,0.98,11.2
8.766142129898071,-10.03,-6.05,1.49,11.8
8.776863098144531,-10.14,-5.17,0.22,11.38
8.78669810295105,-9.71,-4.01,-1.43,10.6
8.796213150024414,-8.87,-3.06,-2.58,9.73
8.806268215179443,-7.67,-2.35,-2.93,8.54
8.81739091873169,-6.16,-1.67,-2.82,6.97
8.826885223388672,-4.56,-0.91,-2.61,5.33
8.83837604522705,-3.05,-0.09,-2.44,3.9
8.848275184631348,-1.69,0.74,-2.36,2.99
8.859676122665405,-0.72,1.6,-2.37,2.94
8.866365909576416,-0.35,2.53,-2.33,3.45
8.876544952392578,-0.5,3.41,-2.15,4.06
8.88635802268982,-0.77,4.35,-1.67,4.72
8.896968126296997,-0.75,5.49,-0.88,5.61
8.906453132629395,-0.31,6.85,-0.29,6.86
8.917261123657227,0.6,8.81,0.08,8.83
8.926867961883545,2.43,12.2,0.18,12.44
8.938868999481201,5.79,16.23,-1.36,17.28
8.948023080825806,11.39,17.9,-3.1,21.44
8.959388017654419,16.98,16.67,-0.2,23.79
8.967082023620605,18.38,13.94,3.81,23.38
8.976631164550781,15.4,9.8,6.19,19.27
8.986608982086182,10.49,4.77,6.61,13.28
8.996760129928589,7.97,1.35,7.53,11.04
9.006743907928467,10.96,-1.99,14.64,18.39
9.017426013946533,17.52,-7.39,20.92,28.27
9.02669906616211,22.52,-10.72,9.0,26.51
9.039162158966064,26.42,-6.03,3.14,27.28
9.048099040985107,26.27,2.19,5.74,26.97
9.060276985168457,21.03,4.58,5.68,22.25
9.06688404083252,10.42,2.99,4.64,11.79
9.076948165893555,0.42,7.76,7.95,11.11
9.087960243225098,-1.93,10.17,9.1,13.78
9.097477912902832,-1.95,13.59,7.67,15.72
9.106903076171875,-1.61,11.14,-1.99,11.43
9.117805004119873,-1.55,1.26,-8.35,8.58
9.12728500366211,-0.44,-1.92,-7.38,7.63
9.139616012573242,4.49,1.11,0.04,4.62
9.149065017700195,9.07,3.58,3.62,10.4
9.160415172576904,12.53,2.92,0.48,12.87
9.167065143585205,15.11,-1.0,-3.17,15.47
9.17819595336914,14.35,-3.19,-5.02,15.53
9.18821907043457,6.98,-2.02,-1.42,7.4
9.197632074356079,-3.48,-1.71,2.15,4.43
9.20760202407837,-10.25,-1.58,-0.1,10.37
9.217538118362427,-11.07,0.8,0.61,11.11
9.227668046951294,-5.66,0.74,1.11,5.81
9.240023136138916,2.08,-1.26,1.96,3.12
9.249042987823486,5.84,-1.71,3.83,7.19
9.260900974273682,3.35,-0.98,2.01,4.02
9.26779317855835,-0.57,0.15,0.32,0.67
9.277825117111206,-2.3,0.18,-0.14,2.31
9.288619041442871,-1.78,-0.07,-0.27,1.8
9.29847502708435,-0.52,0.15,-1.1,1.22
9.30854320526123,0.28,0.63,-1.29,1.46
9.317573070526123,0.98,0.69,-1.14,1.65
9.32775592803955,1.17,0.56,-0.46,1.37
9.340333938598633,0.52,0.31,-0.1,0.61
9.349528074264526,-0.14,-1.27,-2.22,2.56
9.36147689819336,0.41,-0.62,-0.14,0.75
9.367409229278564,0.96,0.57,2.32,2.57
9.37812614440918,0.03,0.45,0.93,1.03
9.3889799118042,-1.76,0.7,1.69,2.53
9.398531913757324,-3.2,0.56,3.04,4.44
9.408377170562744,-3.87,0.0,2.92,4.84
9.417981147766113,-4.03,-0.05,2.67,4.83
9.428192138671875,-3.53,0.02,2.14,4.12
9.441059112548828,-2.14,-0.02,1.26,2.48
9.449664115905762,-0.58,0.25,0.62,0.88
9.461590051651001,0.25,0.72,0.05,0.76
9.467750072479248,0.8,1.08,-0.69,1.51
9.478886127471924,1.23,1.12,-1.45,2.2
9.489319086074829,1.45,1.15,-1.77,2.56
9.49794602394104,1.64,1.21,-1.65,2.62
9.508265018463135,1.56,1.25,-1.32,2.39
9.51836109161377,0.9,1.41,-0.83,1.86
9.528249025344849,-0.04,1.74,-0.06,1.74
9.54106092453003,-1.01,1.96,0.59,2.28
9.549705028533936,-1.78,1.83,0.75,2.66
9.561851024627686,-2.02,1.46,0.44,2.53
9.567737102508545,-1.6,1.03,0.11,1.9
9.577936172485352,-0.9,0.78,-0.15,1.2
9.58978009223938,-0.46,0.74,-0.44,0.97
9.599108219146729,-0.65,0.73,-1.16,1.51
9.608665943145752,-1.6,1.13,-1.63,2.54
9.618211030960083,-2.74,2.19,-1.43,3.78
9.628579139709473,-3.6,3.15,-1.5,5.01
9.638260126113892,-4.17,3.53,-1.93,5.79
9.64992904663086,-4.26,3.65,-2.07,5.97
9.662976026535034,-3.6,4.39,-2.45,6.18
9.66821813583374,-3.56,7.0,-1.82,8.06
9.678230047225952,-4.66,10.34,-0.74,11.36
9.689541101455688,-6.2,12.26,-1.44,13.81
9.698883056640625,-8.08,12.9,-2.51,15.42
9.708996057510376,-9.96,13.13,-2.8,16.71
9.71886396408081,-9.57,13.65,-1.64,16.75
9.72978401184082,-6.83,14.65,1.29,16.21
9.738561153411865,-4.66,14.54,1.91,15.38
9.749606132507324,-6.09,12.47,0.43,13.88
9.763254165649414,-9.32,11.68,0.11,14.94
9.768199920654297,-12.11,11.01,0.18,16.36
9.77849292755127,-12.49,8.59,0.94,15.18
9.788883209228516,-10.0,7.08,2.03,12.41
9.799439907073975,-6.97,5.76,2.04,9.26
9.808934211730957,-5.9,3.08,0.56,6.67
9.818871974945068,-7.32,0.49,-1.47,7.48
9.828985214233398,-9.79,-0.72,-1.54,9.93
9.839531898498535,-12.19,-1.37,0.14,12.26
9.852601051330566,-14.17,-2.98,0.91,14.5
9.863667964935303,-15.22,-4.62,1.32,15.96
9.868652105331421,-14.97,-5.1,2.13,15.95
9.878663063049316,-13.4,-4.74,2.04,14.35
9.890580177307129,-11.32,-4.2,1.07,12.12
9.899775981903076,-9.24,-3.77,0.02,9.97
9.90918493270874,-7.68,-3.16,-0.43,8.31
9.919597148895264,-7.03,-2.47,-0.54,7.47
9.929194927215576,-7.08,-1.99,-0.74,7.39
9.939352989196777,-7.43,-1.51,-0.7,7.61
9.950654983520508,-7.85,-1.22,-0.57,7.96
9.963536024093628,-8.07,-1.13,-0.43,8.16
9.968862056732178,-7.65,-0.76,0.16,7.68
9.979340076446533,-6.58,0.0,1.1,6.67
9.988862037658691,-5.23,0.84,1.79,5.59
9.999080181121826,-3.84,1.68,1.98,4.63
10.008899211883545,-2.44,2.55,1.55,3.85
10.019617080688477,-1.15,3.69,0.78,3.94
10.029520034790039,-0.27,5.39,0.21,5.4
10.03960108757019,-0.01,7.47,-0.27,7.47
10.051449060440063,-0.11,9.67,-0.6,9.68
10.064393043518066,0.26,11.72,-0.93,11.75
10.069699048995972,2.07,13.36,-1.64,13.61
10.080231189727783,5.5,14.41,-2.77,15.67
10.089615106582642,9.77,14.74,-3.42,18.01
10.099751949310303,14.03,14.67,-3.08,20.53
10.109281063079834,17.3,13.2,-2.9,21.95
10.119758129119873,20.92,10.38,-3.69,23.64
10.129906177520752,26.11,7.75,-4.85,27.66
10.139774084091187,29.5,4.75,-5.04,30.3
10.149805068969727,28.63,3.26,-2.9,28.96
10.163350105285645,26.57,0.24,-1.81,26.63
10.16989517211914,26.84,-4.75,-0.81,27.26
10.179826021194458,27.5,-9.6,5.01,29.55
10.189372062683105,25.65,-14.24,4.64,29.7
10.19939112663269,19.14,-8.54,-0.33,20.96
10.209362983703613,13.35,3.37,-1.12,13.81
10.220307111740112,9.39,13.0,-13.15,20.73
10.229698181152344,1.91,32.16,-34.49,47.19
10.239345073699951,-13.06,10.29,-22.56,28.02
10.250790119171143,-10.5,-0.85,-4.49,11.45
10.264256954193115,0.47,5.79,11.22,12.63
10.269711017608643,5.93,6.36,16.02,18.22
10.280077934265137,8.94,-6.04,11.64,15.87
10.290031909942627,10.76,-17.15,3.87,20.61
10.300586223602295,9.65,-10.51,5.32,15.22
10.310056209564209,6.53,1.83,8.87,11.16
10.319644927978516,2.39,4.06,4.8,6.72
10.329950094223022,-1.8,0.07,-6.62,6.86
10.340062141418457,-1.68,3.0,-11.98,12.46
10.351291179656982,-2.79,7.04,-16.29,17.96
10.365416049957275,-3.07,8.05,-12.4,15.09
10.369940042495728,0.8,4.6,-4.16,6.25
10.379727125167847,3.16,-3.37,0.84,4.69
10.390666007995605,1.57,-10.21,13.57,17.05
10.400338172912598,-0.44,-7.89,17.77,19.44
10.409757137298584,0.76,-0.91,0.63,1.34
10.419804096221924,-0.38,2.28,-3.13,3.89
10.431218147277832,-2.33,2.18,-4.48,5.5
10.43993616104126,-2.51,1.51,-3.67,4.69
10.450993061065674,-1.03,0.71,-1.2,1.73
10.465639114379883,0.53,-0.43,0.39,0.78
10.469913005828857,1.44,-0.83,1.2,2.04
10.479957103729248,1.47,-0.58,0.94,1.83
10.490861892700195,0.56,-0.07,0.36,0.66
10.501063108444214,-0.86,0.22,0.08,0.89
10.509900093078613,-2.25,0.07,0.25,2.26
10.520819187164307,-2.9,-0.24,0.78,3.01
10.530488967895508,-2.64,-0.45,1.22,2.94
10.540424108505249,-1.69,-0.48,0.89,1.96
10.552365064620972,-0.51,-0.21,-0.06,0.55
10.56626009941101,0.21,0.27,-0.87,0.93
10.570065021514893,0.51,0.57,-1.2,1.42
10.580198049545288,0.26,0.52,-0.97,1.13
10.591288089752197,-0.42,0.23,-0.29,0.55
10.6012601852417,-1.19,-0.08,0.51,1.29
10.610830068588257,-1.6,-0.16,1.01,1.89
10.62071704864502,-1.4,-0.26,0.8,1.63
10.63054609298706,-0.65,-0.26,0.04,0.7
10.640430927276611,0.24,0.23,-0.61,0.69
10.652465105056763,0.77,0.85,-0.71,1.34
10.666550159454346,0.8,0.71,-0.8,1.33
10.670318126678467,0.33,0.6,-0.42,0.8
10.68038010597229,-0.43,0.59,0.14,0.74
10.691136121749878,-0.97,0.68,0.48,1.27
10.70108413696289,-1.17,1.09,0.78,1.77
10.712232112884521,-1.79,1.71,1.08,2.7
10.720871925354004,-3.1,2.61,1.45,4.3
10.73104190826416,-4.01,3.23,1.75,5.43
10.740864038467407,-3.7,3.14,1.86,5.19
10.753119945526123,-2.54,4.03,2.03,5.17
10.766967058181763,-1.72,5.74,1.58,6.19
10.770586967468262,-2.85,8.18,1.73,8.83
10.780704975128174,-5.42,10.79,2.84,12.4
10.790854930877686,-7.74,10.58,3.44,13.55
10.801156997680664,-8.74,9.91,3.63,13.7
10.812670230865479,-8.29,10.92,4.31,14.37
10.821237087249756,-7.18,13.2,5.34,15.94
10.831317901611328,-8.36,13.39,1.89,15.89
10.84115219116211,-10.24,13.81,-1.64,17.27
10.85285997390747,-10.76,11.93,-0.37,16.06
10.867496967315674,-11.76,5.53,1.84,13.12
10.87079906463623,-16.53,0.87,0.38,16.55
10.880849123001099,-19.37,0.65,-2.35,19.52
10.89127802848816,-15.81,-0.9,-3.37,16.19
10.902009010314941,-10.38,-3.77,-3.32,11.53
10.910845041275024,-6.27,-4.52,-3.4,8.44
10.921772956848145,-4.25,-2.68,-4.44,6.7
10.931243896484375,-4.18,-0.93,-6.75,7.99
10.941273212432861,-5.71,-0.97,-8.8,10.53
10.953098058700562,-6.49,-1.82,-6.24,9.18
10.96775507926941,-6.48,-3.92,-2.61,8.01
10.971113204956055,-7.04,-3.27,-2.87,8.27
10.981420040130615,-8.13,-1.88,-7.02,10.9
10.991025924682617,-8.13,-1.39,-10.2,13.11
11.001177072525024,-7.27,-2.35,-10.51,12.99
11.012911081314087,-6.8,-2.85,-8.91,11.56
11.021162033081055,-7.41,-2.5,-8.57,11.6
11.03175401687622,-8.83,-2.03,-9.95,13.45
11.041439056396484,-9.74,-1.37,-11.16,14.87
11.05339002609253,-9.06,-0.89,-11.56,14.71
11.06819200515747,-6.71,-0.18,-12.08,13.81
11.071268081665039,-4.06,0.18,-12.99,13.61
11.08128309249878,-1.46,1.43,-11.79,11.96
11.09133505821228,0.62,5.23,-10.46,11.71
11.102005004882812,-0.02,4.63,-11.03,11.96
11.112386226654053,-0.97,4.31,-7.5,8.7
11.122228145599365,-2.37,3.98,-3.72,5.94
11.131917953491211,-4.21,4.94,-4.23,7.74
11.142035007476807,-3.45,6.67,-7.7,10.75
11.152760028839111,0.55,7.14,-10.81,12.96
11.168150901794434,4.6,7.04,-11.68,14.39
11.171813011169434,5.84,6.32,-11.09,14.03
11.181479930877686,3.95,4.81,-10.37,12.09
11.191450119018555,1.31,3.23,-9.82,10.42
11.202140092849731,0.98,1.97,-10.12,10.35
11.212594985961914,3.5,1.04,-12.05,12.59
11.222784996032715,7.16,0.62,-13.97,15.71
11.231987953186035,10.64,0.47,-13.34,17.07
11.242226123809814,12.73,-0.43,-10.77,16.68
11.252932071685791,12.19,-1.48,-8.01,14.66
11.268517017364502,9.92,-3.4,-6.01,12.08
11.271440029144287,8.88,-2.67,-4.0,10.09
11.28166389465332,12.07,5.09,-7.29,14.99
11.292192935943604,15.46,9.73,-13.2,22.53
11.302481174468994,10.59,11.14,-6.89,16.84
11.313101053237915,-5.4,-1.18,2.44,6.04
11.323699951171875,-19.17,-9.53,6.94,22.5
11.332268238067627,-20.22,3.3,4.8,21.04
11.34203290939331,-16.47,2.67,5.42,17.54
11.35457706451416,-5.41,-4.42,11.43,13.39
11.369264125823975,8.61,-6.79,1.8,11.11
11.371898174285889,12.4,1.91,-10.07,16.08
11.381946086883545,10.52,8.49,-9.56,16.55
11.391967058181763,7.97,2.01,-6.04,10.2
11.402528047561646,0.99,-2.73,0.35,2.92
11.414699077606201,-6.04,-0.81,4.82,7.76
11.422316074371338,-8.43,-0.18,3.65,9.18
11.432474136352539,-4.98,-0.47,0.63,5.04
11.442084074020386,0.95,0.0,-1.28,1.59
11.454040050506592,4.63,0.66,-1.58,4.93
11.470372200012207,4.47,0.75,-1.19,4.68
11.472145080566406,1.57,0.27,-0.96,1.85
11.48228406906128,-1.25,0.05,-0.22,1.27
11.493185043334961,-2.26,-0.16,0.7,2.37
11.5022611618042,-1.56,-0.18,1.01,1.86
11.515424013137817,-0.2,-0.16,0.38,0.45
11.522442102432251,0.96,0.03,-0.16,0.97
11.532596111297607,1.82,0.27,-0.08,1.84
11.542572975158691,2.05,0.02,0.21,2.06
11.554169178009033,1.33,-0.27,0.61,1.48
11.570187091827393,0.04,-0.17,0.97,0.98
11.572264194488525,-1.46,-0.44,0.92,1.78
11.582406044006348,-2.35,-0.54,1.19,2.68
11.592987060546875,-2.04,-0.38,1.54,2.58
11.60244107246399,-1.03,-0.35,1.08,1.53
11.61613416671753,-0.12,-0.1,0.05,0.16
11.622544050216675,0.51,0.26,-0.82,1.0
11.632916927337646,0.96,0.44,-0.82,1.33
11.64280891418457,1.01,0.36,-0.3,1.11
11.65463924407959,0.51,0.14,-0.3,0.6
11.662477016448975,-0.38,0.2,-0.32,0.53
11.67270302772522,-0.46,0.64,-0.04,0.78
11.682975053787231,0.06,0.17,-0.02,0.18
11.693634986877441,0.16,-0.09,-0.3,0.35
11.70262098312378,-0.09,0.5,-0.48,0.69
11.715182065963745,-0.03,1.07,-0.59,1.22
11.722867965698242,0.69,0.9,-1.34,1.75
11.734122037887573,1.63,1.09,-1.71,2.6
11.74300503730774,2.27,1.59,-2.41,3.67
11.75492811203003,2.21,2.45,-2.41,4.08
11.76318907737732,0.71,2.15,-1.78,2.88
11.773165225982666,-3.74,1.43,1.22,4.18
11.78283405303955,-8.64,2.37,1.53,9.08
11.792781114578247,-12.68,3.59,1.24,13.23
11.803175926208496,-14.61,3.38,3.52,15.4
11.813276052474976,-12.51,5.05,2.47,13.71
11.82317304611206,-9.37,8.25,1.82,12.61
11.83371114730835,-7.48,9.77,3.12,12.69
11.843351125717163,-7.66,6.74,5.46,11.57
11.856007099151611,-10.73,3.19,2.63,11.49
11.862926006317139,-13.09,2.15,-0.31,13.26
11.873070240020752,-10.97,1.4,-2.57,11.35
11.883433103561401,-8.6,0.32,-4.54,9.73
11.893964052200317,-8.1,-1.37,-4.68,9.45
11.904672145843506,-7.44,-2.9,-4.78,9.3
11.913517951965332,-7.66,-3.7,-5.14,9.93
11.923282146453857,-8.13,-4.39,-5.34,10.67
11.933497905731201,-7.69,-4.95,-5.57,10.7
11.943279027938843,-7.16,-5.08,-5.74,10.48
11.955734014511108,-6.88,-4.72,-6.01,10.28
11.963129043579102,-6.54,-4.15,-6.11,9.86
11.973124027252197,-6.03,-3.73,-5.84,9.18
11.98332405090332,-5.41,-3.14,-5.59,8.38
11.993242025375366,-4.88,-2.29,-5.41,7.63
12.003283023834229,-4.41,-1.56,-5.18,6.97
12.013969898223877,-3.87,-1.06,-4.86,6.3
12.02369499206543,-3.45,-0.6,-4.61,5.78
12.034080028533936,-3.32,-0.18,-4.43,5.53
12.043636083602905,-3.14,0.18,-4.08,5.15
12.05558705329895,-2.51,0.44,-3.59,4.4
12.063360214233398,-1.58,0.73,-3.14,3.59
12.073539018630981,-0.77,1.36,-2.86,3.25
12.083360195159912,-0.44,1.98,-2.69,3.36
12.094408988952637,-0.35,2.3,-2.22,3.21
12.103484153747559,-0.22,2.45,-1.44,2.85
12.114383220672607,0.11,2.43,-0.56,2.49
12.123723983764648,0.49,2.4,-0.04,2.44
12.133999109268188,0.85,2.54,0.39,2.7
12.144060134887695,0.99,2.41,0.87,2.74
12.157625198364258,1.1,2.19,1.53,2.88
12.163862228393555,1.37,2.07,2.25,3.35
12.173562049865723,1.95,2.08,2.97,4.11
12.183588981628418,2.85,2.25,3.43,4.99
12.19367504119873,4.48,2.58,3.29,6.12
12.204310894012451,7.23,3.29,2.63,8.36
12.214353084564209,11.26,4.39,1.8,12.21
12.223954200744629,15.84,4.86,1.05,16.6
12.23488712310791,19.47,4.12,0.88,19.92
12.244004011154175,21.31,2.32,1.68,21.5
12.257456064224243,20.58,0.13,2.81,20.77
12.264119148254395,17.32,-1.86,3.8,17.82
12.273858070373535,13.02,-3.18,6.93,15.08
12.283881187438965,9.83,-4.37,8.4,13.64
12.294948101043701,8.59,-4.26,6.48,11.57
12.304780006408691,9.06,-1.69,5.46,10.71
12.314593076705933,9.08,4.81,9.71,14.13
12.324160099029541,4.27,11.17,13.82,18.27
12.334492206573486,-6.94,5.7,1.74,9.14
12.344182968139648,-20.09,-1.2,-15.08,25.14
12.358232975006104,-21.39,3.19,-13.65,25.57
12.363960027694702,-11.86,5.44,-4.36,13.75
12.374197959899902,-4.11,3.38,3.45,6.34
12.384013175964355,1.64,0.61,7.42,7.62
12.395116090774536,7.82,-2.38,7.25,10.92
12.404979228973389,13.77,-6.16,6.19,16.3
12.41447901725769,17.92,-8.7,4.14,20.34
12.42442011833191,19.02,-3.71,4.22,19.83
12.435169219970703,15.96,3.23,4.43,16.87
12.444366931915283,9.15,2.3,-2.09,9.66
12.457369089126587,2.03,0.8,-9.2,9.45
12.46430492401123,-2.15,5.7,-7.65,9.77
12.474733114242554,-10.03,6.41,-10.99,16.2
12.484313011169434,-14.92,4.33,-9.16,18.03
12.495285987854004,-9.4,2.63,0.35,9.76
12.504374027252197,-1.36,-5.27,13.61,14.65
12.515410900115967,3.18,-12.96,13.47,18.96
12.52448320388794,4.71,-4.87,2.15,7.1
12.535013198852539,5.04,3.93,-1.75,6.62
12.544763088226318,2.9,3.94,-4.81,6.86
12.55793809890747,1.3,2.36,-4.51,5.25
12.565165996551514,-0.35,-0.15,1.16,1.22
12.574960231781006,-2.55,-3.2,4.65,6.19
12.584500074386597,-2.29,-1.64,0.18,2.82
12.595525026321411,-0.82,1.57,-1.42,2.27
12.60460615158081,0.43,1.04,-0.39,1.19
12.615463018417358,1.32,-0.84,0.44,1.62
12.6245698928833,1.17,-0.87,1.11,1.83
12.634990215301514,-0.12,-0.2,1.08,1.1
12.645051002502441,-1.43,-0.1,1.08,1.79
12.657995223999023,-1.87,-0.34,1.12,2.2
12.66472601890564,-1.35,-0.44,0.79,1.62
12.67505693435669,-0.46,-0.19,0.6,0.77
12.684728145599365,-0.05,0.04,0.63,0.63
12.695815086364746,-0.17,0.0,0.3,0.34
12.70481824874878,-0.74,-0.05,0.59,0.94
12.715747117996216,-1.35,-0.09,0.47,1.43
12.725165128707886,-1.52,0.05,0.12,1.52
12.735198974609375,-1.17,0.12,0.24,1.2
12.74546194076538,-0.75,0.04,0.09,0.75
12.758667945861816,-0.51,0.12,0.45,0.69
12.764895915985107,-0.65,0.09,0.66,0.93
12.775054931640625,-1.03,0.01,0.51,1.14
12.78491497039795,-1.35,0.13,0.55,1.46
12.795027017593384,-1.51,0.4,0.61,1.67
12.804912090301514,-1.49,0.58,0.59,1.7
12.815030097961426,-1.31,0.61,0.41,1.5
12.82611608505249,-0.97,0.81,0.17,1.27
12.83669900894165,-0.58,1.28,-0.04,1.4
12.84567904472351,-0.21,1.64,-0.32,1.68
12.85844111442566,-0.05,1.92,-0.55,1.99
12.865084171295166,0.05,2.2,-0.58,2.27
12.875440120697021,0.12,2.29,-0.75,2.41
12.885064125061035,0.15,2.75,-0.73,2.84
12.896250247955322,0.42,3.88,-0.29,3.91
12.905237197875977,-0.03,5.22,-0.03,5.22
12.916183948516846,-1.7,5.03,-1.58,5.53
12.925599098205566,-4.35,6.15,-1.1,7.61
12.93700909614563,-6.76,9.24,1.19,11.51
12.94560194015503,-8.46,11.12,1.15,14.01
12.964047908782959,-9.91,10.43,-2.37,14.58
12.965272903442383,-10.75,11.27,-1.59,15.65
12.976189136505127,-9.68,12.41,-1.35,15.79
12.985415935516357,-9.23,12.17,-2.27,15.44
12.99574899673462,-10.15,10.47,-0.09,14.58
13.00597620010376,-11.43,8.96,2.4,14.72
13.01649808883667,-10.97,8.25,5.47,14.77
13.025538921356201,-7.32,9.6,9.89,15.6
13.038106918334961,-5.39,8.8,6.13,12.0
13.046147108078003,-7.04,4.8,1.38,8.63
13.058681964874268,-8.14,3.87,0.85,9.05
13.065625190734863,-8.05,4.64,1.27,9.37
13.07620906829834,-7.57,4.79,0.53,8.97
13.086740970611572,-7.37,3.6,-0.63,8.22
13.096695899963379,-8.16,1.53,-2.2,8.58
13.105740070343018,-10.28,-0.62,-4.04,11.06
13.116400241851807,-12.32,-1.74,-4.08,13.09
13.12607717514038,-13.57,-2.48,-2.65,14.04
13.13804006576538,-14.74,-4.04,0.15,15.28
13.145799160003662,-15.72,-6.09,3.37,17.19
13.158852100372314,-15.32,-7.29,3.52,17.32
13.165795087814331,-13.27,-6.79,1.59,14.99
13.17643690109253,-10.53,-5.0,0.25,11.65
13.187016010284424,-8.6,-3.4,-0.71,9.27
13.197019100189209,-7.69,-2.51,-1.93,8.31
13.20587706565857,-7.29,-1.51,-2.47,7.84
13.216824054718018,-6.87,-0.65,-2.56,7.36
13.22618293762207,-6.49,-0.23,-2.79,7.06
13.23843502998352,-6.02,0.09,-2.85,6.66
13.246419906616211,-5.46,0.68,-2.51,6.04
13.260348081588745,-4.98,1.5,-1.95,5.55
13.265953063964844,-4.68,2.44,-1.41,5.46
13.276685237884521,-4.59,3.56,-1.1,5.91
13.287369012832642,-4.77,4.94,-1.27,6.98
13.296229124069214,-5.01,6.66,-1.89,8.54
13.306108951568604,-4.82,9.02,-2.58,10.54
13.316991090774536,-3.23,12.01,-3.94,13.04
13.326704978942871,0.65,14.92,-7.44,16.68
13.339210033416748,7.42,17.8,-12.84,23.16
13.34651517868042,17.46,19.91,-15.83,30.85
13.36422610282898,25.86,17.66,-14.43,34.47
13.36704707145691,28.05,12.78,-9.42,32.23
13.376792907714844,25.06,7.98,-3.01,26.47
13.38768720626831,20.46,3.64,0.76,20.79
13.396377086639404,17.78,0.54,2.73,17.99
13.406317234039307,19.12,-2.25,5.85,20.12
13.417033195495605,23.73,-5.33,6.74,25.23
13.426551103591919,28.59,-6.62,2.28,29.43
13.437840938568115,32.02,-3.78,0.98,32.25
13.447107076644897,30.81,-0.22,1.61,30.85
13.464294910430908,25.16,0.94,1.04,25.19
13.466758012771606,18.15,1.49,2.02,18.32
13.476583003997803,10.46,5.81,10.1,15.65
13.487921237945557,1.64,11.35,12.0,16.59
13.496599197387695,-13.48,3.12,-2.16,14.0
13.507520198822021,-26.12,-2.47,-18.58,32.14
13.516861915588379,-17.96,8.69,-7.96,21.48
13.52706003189087,-5.16,10.89,6.03,13.47
13.539653062820435,1.89,3.89,8.65,9.67
13.546770095825195,9.49,-4.31,5.3,11.69
13.566132068634033,17.89,-12.43,0.7,21.79
13.567877054214478,24.17,-8.81,0.91,25.74
13.576673030853271,21.91,2.43,4.05,22.41
13.5883469581604,15.08,7.36,7.67,18.45
13.597737073898315,5.84,0.59,-3.7,6.93
13.606765031814575,-1.42,-2.33,-12.22,12.52
13.617652893066406,-3.82,7.2,-3.84,9.0
13.627223014831543,-13.32,4.88,-11.97,18.56
13.63984203338623,-15.49,4.17,-7.53,17.72
13.647045135498047,-6.75,3.1,1.97,7.68
13.665533065795898,1.37,-4.24,3.75,5.82
13.66745901107788,7.11,-8.05,6.22,12.41
13.676866054534912,10.11,-3.5,10.17,14.76
13.688669204711914,7.88,-0.31,6.67,10.32
13.697956085205078,2.16,-1.05,-2.27,3.3
13.707005023956299,-3.15,1.36,-6.03,6.93
13.71779203414917,-5.91,3.49,-5.57,8.83
13.727525234222412,-5.52,1.75,-3.38,6.7
13.73979902267456,-2.06,-0.9,1.47,2.68
13.747004985809326,1.52,-2.55,6.81,7.42
13.76523208618164,1.74,-2.1,4.02,4.85
13.766947031021118,-0.22,0.09,-0.88,0.91
13.777159214019775,-1.78,0.98,-1.49,2.51
13.78757619857788,-2.41,0.06,0.15,2.41
13.79823112487793,-2.17,-1.04,2.62,3.55
13.807701110839844,-1.23,-1.15,1.99,2.6
13.817456245422363,-0.62,-0.1,0.12,0.63
13.827867031097412,-0.4,0.76,-0.43,0.96
13.83760404586792,-0.23,0.65,-0.35,0.77
13.847539901733398,-0.35,0.38,0.33,0.61
13.868535041809082,-0.84,0.18,0.8,1.17
13.869540214538574,-1.2,0.23,0.53,1.33
13.878451108932495,-1.16,0.55,-0.05,1.28
13.887875080108643,-0.92,0.88,-0.46,1.35
13.897394180297852,-0.54,1.2,-0.57,1.43
13.907421112060547,-0.21,2.0,-0.03,2.01
13.91740894317627,-0.49,3.92,1.86,4.36
13.92836308479309,-2.53,2.8,3.18,4.93
13.937895059585571,-4.16,-0.93,0.87,4.35
13.947731018066406,-3.43,-0.84,-1.04,3.68
13.967357158660889,-1.45,1.34,-0.75,2.11
13.969100952148438,0.31,1.29,-3.2,3.46
13.978607177734375,0.85,1.92,-3.77,4.31
13.987563133239746,1.23,3.92,-2.53,4.82
13.99765920639038,1.13,5.65,-1.91,6.07
14.007676124572754,0.21,6.31,-2.89,6.94
14.01760196685791,-1.1,6.8,-3.87,7.9
14.028531074523926,-2.71,7.65,-4.38,9.22
14.038012981414795,-4.27,8.89,-4.39,10.79
14.047804117202759,-6.05,10.76,-3.8,12.91
14.066796064376831,-8.04,13.35,-3.21,15.91
14.068160057067871,-10.3,15.17,-4.04,18.77
14.078700065612793,-13.4,14.55,-8.26,21.43
14.087739944458008,-17.53,11.71,-13.8,25.19
14.09791612625122,-20.91,9.18,-15.27,27.47
14.107931137084961,-20.12,8.79,-12.41,25.22
14.118966102600098,-10.22,8.44,6.36,14.7
14.128770112991333,0.17,3.85,27.22,27.49
14.138322114944458,1.81,-0.43,10.32,10.48
14.14820408821106,2.23,4.99,0.63,5.5
14.166696071624756,-1.15,12.08,2.95,12.48
14.16792917251587,-10.12,9.01,-1.58,13.64
14.178037166595459,-20.64,0.63,-7.89,22.1
14.187989234924316,-25.2,-2.75,-9.99,27.24
14.199065208435059,-24.5,-3.49,3.99,25.06
14.208046913146973,-21.2,-6.08,10.8,24.55
14.218020915985107,-15.4,-6.98,1.25,16.95
14.22814416885376,-11.19,-5.53,-1.62,12.58
14.23970890045166,-7.57,-4.27,-2.05,8.92
14.248469114303589,-4.9,-3.26,-2.24,6.29
14.266020059585571,-4.1,-1.71,-1.33,4.63
14.268213033676147,-4.31,-0.3,-0.19,4.32
14.278253078460693,-4.33,-0.22,-0.24,4.34
14.28873610496521,-4.07,-1.19,-0.89,4.33
14.298285007476807,-4.36,-2.08,-1.02,4.93
14.308272123336792,-5.66,-2.4,-0.4,6.16
14.31904911994934,-7.04,-1.79,1.36,7.39
14.328766107559204,-7.22,-0.71,2.79,7.77
14.33862018585205,-5.85,0.26,2.44,6.34
14.348681926727295,-4.29,1.28,1.53,4.73
14.367764949798584,-3.34,2.85,1.42,4.61
14.369322061538696,-2.56,4.3,1.66,5.27
14.379011154174805,-1.99,5.51,1.57,6.06
14.388858079910278,-1.39,6.96,1.57,7.26
14.398585081100464,-0.24,8.37,1.21,8.46
14.40906310081482,2.5,10.2,0.32,10.5
14.41908597946167,7.4,13.1,-0.72,15.06
14.42905306816101,14.7,16.59,-1.43,22.21
14.438889980316162,23.15,18.02,-1.68,29.38
14.448825120925903,29.27,16.12,-0.34,33.41
14.46782112121582,30.29,12.15,2.31,32.71
14.469970226287842,28.02,7.14,4.69,29.29
14.479403972625732,26.07,0.62,6.74,26.93
14.489246129989624,26.14,-7.39,18.2,32.69
14.49960994720459,28.7,-10.97,19.88,36.59
14.508907079696655,29.91,-3.22,6.53,30.78
14.519305229187012,28.98,6.49,3.03,29.85
14.52951717376709,26.33,8.94,1.48,27.84
14.539388179779053,16.95,13.12,6.22,22.31
14.548798084259033,2.24,12.55,4.25,13.43
14.566467046737671,-17.61,0.81,-17.94,25.15
14.568939208984375,-29.51,1.62,-21.88,36.77
14.57891321182251,-20.4,1.9,5.91,21.32
14.588919162750244,-4.44,-5.65,34.38,35.12
14.599061965942383,-2.68,-11.83,6.06,13.55
14.609002113342285,6.9,-8.24,0.14,10.74
14.618985176086426,18.86,3.24,2.25,19.26
14.629679203033447,18.94,8.32,-1.87,20.77
14.639181137084961,15.38,8.06,-4.32,17.89
14.649699211120605,19.74,8.46,-8.38,23.05
14.668410062789917,20.91,5.97,-14.13,25.93
14.670279026031494,6.87,2.22,-9.47,11.9
14.679148197174072,-18.34,-7.38,20.0,28.12
14.689148902893066,-29.6,-16.91,17.8,38.45
14.699210166931152,-15.66,-5.89,-2.84,16.97
14.710955142974854,-0.56,6.21,2.3,6.64
14.71964406967163,7.6,4.77,-1.28,9.06
14.729677200317383,13.05,0.37,-0.13,13.05
14.739459037780762,9.5,-2.95,1.03,10.0
14.749903202056885,-0.86,-1.7,1.22,2.26
14.771273136138916,-7.24,0.92,0.23,7.3
14.772254943847656,-6.54,1.15,-1.66,6.84
14.779261112213135,-2.03,-0.16,-0.2,2.04
14.789259910583496,2.3,-0.91,0.94,2.64
14.799456119537354,4.07,-0.06,0.55,4.1
14.811089992523193,2.51,0.64,-0.11,2.59
14.81979513168335,-0.01,0.25,0.14,0.28
14.829981088638306,-1.35,-0.37,0.59,1.51
14.839619159698486,-1.56,-0.58,0.37,1.7
14.849879026412964,-1.38,-0.44,0.15,1.45
14.868051052093506,-0.93,0.04,0.16,0.94
14.869662046432495,-0.17,0.37,0.13,0.42
14.879584074020386,0.62,0.56,0.19,0.85
14.889923095703125,1.08,0.56,0.02,1.21
14.900682926177979,1.12,0.55,-0.18,1.26
14.909575939178467,0.81,0.78,-0.19,1.14
14.920293092727661,0.22,0.93,-0.32,1.0
14.930141925811768,-0.36,0.78,-0.59,1.04
14.939893245697021,-0.78,0.63,-0.53,1.13
14.950139045715332,-0.94,0.5,-0.28,1.1
14.969128131866455,-0.85,0.38,-0.36,0.99
14.970663070678711,-0.72,0.46,-0.52,1.0
14.979812145233154,-0.77,0.81,-0.46,1.2
14.989892959594727,-1.06,1.12,-0.39,1.59
14.99987506866455,-1.45,1.51,-0.28,2.11
15.010622024536133,-1.98,2.37,0.44,3.11
15.020267963409424,-2.69,2.74,0.07,3.84
15.030317068099976,-2.82,2.46,-1.95,4.21
15.0401291847229,-2.68,3.41,-2.21,4.86
15.050279140472412,-2.59,4.46,-2.17,5.59
15.068871974945068,-2.21,4.88,-3.06,6.16
15.070604085922241,-2.03,6.28,-3.28,7.37
15.079921245574951,-2.37,8.69,-2.48,9.34
15.090466022491455,-3.42,11.98,-0.69,12.47
15.10075306892395,-5.11,13.77,-1.13,14.73
15.110116958618164,-7.31,12.85,-4.51,15.45
15.120634078979492,-10.07,12.31,-7.09,17.41
15.130840063095093,-13.22,12.53,-7.46,19.68
15.140079975128174,-14.76,11.8,-7.28,20.25
15.150918960571289,-13.07,10.76,-6.59,18.16
15.169102191925049,-5.87,9.16,1.62,10.99
15.170821189880371,0.4,8.28,12.44,14.94
15.18013310432434,-0.1,4.23,13.16,13.82
15.19112491607666,-4.79,0.75,6.56,8.15
15.20036506652832,-8.53,0.35,3.07,9.07
15.211443901062012,-9.31,2.39,2.77,10.0
15.22134804725647,-7.33,5.05,3.75,9.65
15.230334043502808,-6.27,5.13,2.27,8.41
15.241192102432251,-8.08,2.98,-0.51,8.62
15.250736236572266,-12.16,0.41,-2.58,12.43
15.269866943359375,-16.7,-1.41,-4.13,17.26
15.271496057510376,-17.76,-2.23,-3.84,18.3
15.280468940734863,-15.48,-1.52,-0.42,15.56
15.29039192199707,-14.0,-1.48,8.94,16.67
15.300591945648193,-13.65,-3.72,13.23,19.36
15.311651229858398,-12.21,-5.53,6.56,14.92
15.321554183959961,-10.3,-5.71,2.61,12.06
15.33054804801941,-8.41,-3.94,2.46,9.6
15.341466903686523,-7.1,-2.18,3.22,8.09
15.350950241088867,-7.27,-1.21,3.74,8.26
15.37048602104187,-7.92,-0.73,4.08,8.93
15.372053146362305,-8.52,-0.34,4.6,9.68
15.381656169891357,-8.99,-0.44,4.91,10.25
15.390635013580322,-9.37,-0.67,5.38,10.82
15.401823043823242,-9.29,-0.49,6.23,11.19
15.41212511062622,-8.89,0.82,7.72,11.8
15.42173719406128,-8.12,2.66,9.09,12.47
15.431620121002197,-7.14,4.17,9.48,12.57
15.441208124160767,-6.22,5.3,9.36,12.42
15.451160907745361,-5.58,6.46,9.46,12.74
15.470164060592651,-4.99,7.76,9.88,13.51
15.471887111663818,-4.56,9.29,10.29,14.59
15.481231212615967,-4.15,11.0,10.66,15.87
15.491440057754517,-3.25,12.49,10.98,16.94
15.50186824798584,-1.25,13.57,11.33,17.72
15.512328147888184,2.35,14.04,10.97,17.97
15.521172046661377,6.31,13.13,8.02,16.62
15.53156304359436,9.62,12.2,5.27,16.4
15.541613101959229,11.87,12.97,5.47,18.41
15.551846027374268,14.32,12.26,5.95,19.76
15.5697181224823,19.19,9.62,5.03,22.04
15.57101821899414,25.99,5.94,3.66,26.91
15.581683158874512,30.96,2.83,3.22,31.25
15.591694116592407,31.22,-0.55,7.44,32.09
15.601941108703613,27.49,-6.67,16.05,32.52
15.612802028656006,24.35,-12.04,12.25,29.79
15.621262073516846,20.41,-10.99,4.22,23.56
15.63124418258667,19.39,-6.74,-9.19,22.49
15.642194032669067,42.55,4.2,-14.42,45.12
15.652064085006714,58.44,28.29,-11.45,65.92
15.669928073883057,28.01,20.44,-24.6,42.51
15.671195030212402,-11.69,-6.05,-27.56,30.54
15.681971073150635,-25.93,-2.38,-11.44,28.44
15.691943168640137,-23.73,2.07,6.42,24.67
15.70185112953186,-17.84,1.83,32.84,37.41
15.713273048400879,-10.83,-5.13,17.54,21.24
15.72203016281128,-6.4,-7.61,4.42,10.88
15.731344223022461,3.98,-6.9,-1.06,8.03
15.742338180541992,11.1,-4.39,-1.31,12.0
15.75194501876831,9.69,0.86,3.87,10.46
15.769959926605225,7.48,2.88,1.57,8.16
15.771599054336548,10.01,2.6,-5.61,11.76
15.781661987304688,8.45,2.58,-10.66,13.84
15.7918860912323,0.18,3.66,-10.66,11.27
15.801634073257446,-6.43,3.82,-1.29,7.58
15.811491966247559,-7.54,-3.74,10.71,13.62
15.822251081466675,-3.58,-7.82,4.68,9.79
15.832098007202148,1.07,0.09,-0.13,1.08
15.842716217041016,2.51,3.45,0.44,4.28
15.852160930633545,0.88,-0.46,1.25,1.59
15.870464086532593,-1.89,-2.26,3.41,4.5
15.871933937072754,-2.9,-0.44,0.35,2.95
15.881930112838745,-1.19,1.42,-1.74,2.54
15.892213106155396,1.15,0.76,-1.47,2.01
15.901904106140137,2.3,-0.07,-1.17,2.58
15.912557125091553,1.85,0.29,-0.68,1.99
15.922213077545166,0.16,0.32,0.31,0.47
15.93225622177124,-1.79,-0.34,1.33,2.25
15.94239616394043,-2.61,-0.52,1.3,2.96
15.952380180358887,-2.05,-0.15,0.56,2.13
15.970788955688477,-0.96,0.21,-0.14,0.99
15.972876071929932,-0.09,0.39,-0.51,0.64
15.982072114944458,0.55,0.52,-0.65,0.99
15.99201512336731,0.75,0.7,-0.44,1.11
16.003064155578613,0.18,0.83,0.01,0.84
16.012956142425537,-0.77,0.74,0.43,1.15
16.022356033325195,-1.48,0.69,0.9,1.86
16.032356023788452,-1.85,0.87,1.02,2.28
16.04220724105835,-1.85,1.16,0.53,2.24
16.052875995635986,-1.42,1.27,-0.31,1.93
16.071747064590454,-0.8,1.33,-1.18,1.94
16.07393217086792,-0.23,1.78,-1.65,2.43
16.0822172164917,-0.04,2.49,-1.77,3.05
16.09262204170227,-0.46,3.33,-1.39,3.63
16.103126049041748,-1.72,4.59,-0.17,4.9
16.11261224746704,-2.64,4.03,-1.32,4.99
16.12247610092163,-3.89,3.64,-2.05,5.7
16.13275718688965,-4.77,5.49,-1.1,7.35
16.142970085144043,-4.98,7.83,-0.37,9.28
16.153252124786377,-5.01,10.53,0.23,11.66
16.17278504371643,-5.94,13.83,0.72,15.06
16.175080060958862,-7.68,14.88,-1.54,16.81
16.18311905860901,-9.39,14.78,-5.42,18.33
16.193078994750977,-10.83,14.12,-9.61,20.22
16.203260898590088,-11.86,13.41,-11.31,21.17
16.215079069137573,-11.01,14.12,-7.28,19.32
16.22331404685974,-3.99,14.77,0.97,15.33
16.232544898986816,2.62,13.23,6.41,14.93
16.243319988250732,-1.51,5.39,1.13,5.71
16.253530979156494,-11.34,-0.71,-3.2,11.8
16.270936012268066,-16.34,-0.05,1.25,16.38
16.272465229034424,-14.46,2.41,8.68,17.03
16.282515048980713,-12.69,2.22,5.15,13.87
16.29320192337036,-16.05,0.28,-1.62,16.13
16.30264711380005,-19.54,-1.82,-4.33,20.09
16.312746047973633,-20.49,-4.2,-6.46,21.89
16.322813987731934,-18.15,-2.82,-0.49,18.37
16.33279514312744,-15.15,-2.05,7.04,16.83
16.343297004699707,-12.96,-4.47,4.41,14.4
16.353175163269043,-11.52,-5.91,0.36,12.95
16.371435165405273,-9.57,-5.18,-0.64,10.9
16.37292504310608,-7.16,-3.73,-0.81,8.11
16.382912158966064,-6.24,-2.17,-0.58,6.63
16.393832206726074,-6.55,-1.16,-0.28,6.65
16.40288019180298,-7.2,-0.79,-0.5,7.26
16.41274404525757,-7.52,-0.64,-0.59,7.57
16.423673152923584,-7.59,-0.57,-0.39,7.62
16.433866024017334,-7.65,-0.28,0.24,7.65
16.44334316253662,-7.38,0.54,1.42,7.53
16.453410148620605,-6.57,1.46,2.57,7.2
16.471938133239746,-5.46,2.14,3.17,6.66
16.474159240722656,-4.41,2.84,3.23,6.16
16.48304796218872,-3.56,4.03,2.98,6.14
16.493972063064575,-2.76,5.98,2.59,7.07
16.503125190734863,-1.97,8.82,2.11,9.28
16.514039993286133,-0.89,12.23,1.33,12.33
16.524291038513184,1.22,15.39,-0.78,15.45
16.5333251953125,5.72,18.43,-2.59,19.47
16.54370903968811,11.88,19.81,-1.17,23.12
16.553964138031006,15.88,18.42,1.96,24.39
16.564881086349487,17.1,15.38,4.86,23.5
16.573041915893555,18.1,11.88,6.98,22.74
16.5832781791687,20.76,8.0,7.16,23.37
16.594340085983276,25.39,4.35,7.25,26.76
16.60413122177124,33.59,-1.59,15.01,36.82
16.613983154296875,42.62,-11.82,21.93,49.36
16.624232053756714,41.32,-12.89,17.37,46.63
16.634110927581787,31.0,-2.96,10.62,32.9
16.644020080566406,23.85,2.46,3.81,24.27
16.65393590927124,12.45,12.67,12.74,21.85
16.672132968902588,-8.38,11.53,5.6,15.31
16.673177242279053,-31.02,0.27,-24.59,39.58
16.683671951293945,-29.97,10.69,-16.8,35.98
16.693373203277588,-11.76,12.05,0.26,16.83
16.703532218933105,1.41,5.05,10.83,12.03
16.71460199356079,14.1,-0.05,11.82,18.39
16.723621129989624,21.6,-6.83,3.46,22.91
16.73378896713257,24.61,-10.49,0.71,26.76
16.744408130645752,20.19,-3.97,7.74,21.98
16.75396203994751,13.14,1.85,7.37,15.17
16.771773099899292,6.64,0.0,-0.29,6.64
16.77377223968506,0.1,-0.71,-5.17,5.21
16.783839225769043,-4.78,3.94,-4.22,7.49
16.793689012527466,-11.96,5.61,-9.28,16.14
16.80373191833496,-13.82,6.41,-8.01,17.21
16.814545154571533,-6.33,5.22,-1.2,8.29
16.824233055114746,3.01,-1.14,4.37,5.42
16.834289073944092,8.75,-9.66,11.14,17.14
16.844247102737427,6.85,-10.68,5.72,13.91
16.854331016540527,2.26,-1.21,0.49,2.6
16.873230934143066,-1.17,4.93,-2.01,5.45
16.87509822845459,-4.24,4.82,-4.19,7.66
16.883820056915283,-5.86,0.8,-0.75,5.96
16.895071029663086,-3.27,-3.72,4.68,6.81
16.90390920639038,0.0,-4.17,2.19,4.71
16.914737224578857,1.1,-0.49,0.56,1.32
16.924602031707764,0.24,1.72,0.3,1.76
16.935620069503784,-0.5,1.27,-0.23,1.38
16.944420099258423,-0.78,0.18,0.31,0.85
16.95546817779541,-1.18,-0.45,1.01,1.61
16.973082065582275,-1.64,-0.6,0.55,1.83
16.975133895874023,-1.58,-0.35,-0.42,1.67
16.984162092208862,-0.82,0.24,-0.54,1.01
16.994308948516846,0.05,0.86,0.14,0.87
17.00420308113098,0.34,1.01,0.51,1.18
17.01520013809204,0.02,0.56,0.27,0.62
17.024960041046143,-0.77,0.13,0.0,0.78
17.036559104919434,-1.29,0.28,-0.09,1.32
17.044506072998047,-1.25,0.7,-0.11,1.43
17.054917097091675,-1.19,1.0,0.0,1.55
17.066370010375977,-1.3,1.08,0.14,1.69
17.075366020202637,-1.29,1.0,0.31,1.66
17.08433198928833,-0.98,1.11,0.12,1.48
17.09452199935913,-0.6,1.57,-0.41,1.73
17.104392051696777,-0.63,2.33,-0.82,2.54
17.114874124526978,-0.89,3.35,-1.12,3.64
17.124495029449463,-1.09,4.34,-1.59,4.74
17.137178897857666,-1.62,4.93,-2.55,5.78
17.14509105682373,-2.54,5.92,-3.2,7.19
17.154957056045532,-3.34,7.48,-3.29,8.82
17.16630220413208,-4.1,9.51,-3.3,10.86
17.175177097320557,-5.18,11.99,-3.08,13.41
17.184431076049805,-6.78,13.84,-3.67,15.84
17.19466495513916,-8.83,13.6,-6.19,17.35
17.20547604560852,-10.97,12.17,-8.58,18.49
17.215535163879395,-12.73,11.24,-7.32,18.49
17.22572898864746,-14.6,9.73,2.84,17.77
17.237555980682373,-12.01,6.57,17.17,21.95
17.244829177856445,-3.38,7.54,9.62,12.68
17.255468130111694,3.14,10.71,4.7,12.11
17.265772104263306,2.63,7.41,0.7,7.89
17.275243043899536,-4.21,6.8,0.46,8.01
17.28611993789673,-12.5,5.01,-0.91,13.49
17.294854164123535,-18.83,1.82,-1.24,18.95
17.30491590499878,-21.96,-0.51,2.76,22.13
17.315760135650635,-22.54,-3.15,5.28,23.36
17.324904918670654,-20.92,-3.23,6.71,22.2
17.337684154510498,-18.86,-3.21,5.11,19.8
17.345712184906006,-17.43,-4.06,3.22,18.18
17.355731964111328,-16.25,-4.25,3.44,17.14
17.365973949432373,-15.0,-3.51,4.58,16.07
17.37566304206848,-13.71,-2.63,5.6,15.04
17.38641119003296,-12.37,-2.19,6.29,14.04
17.39614701271057,-10.85,-2.15,6.75,12.95
17.405076026916504,-9.18,-1.9,6.85,11.61
17.415175914764404,-4.39,-1.15,2.82,5.34
17.425381183624268,-2.11,2.58,3.55,4.86
17.437828063964844,-9.21,1.84,21.02,23.02
17.445678234100342,-3.16,0.19,8.63,9.19
17.45556116104126,-4.6,-8.41,-14.63,17.49
17.466759204864502,-8.31,8.66,6.06,13.44
17.47583508491516,-3.41,18.79,18.98,26.92
17.486833095550537,-2.9,8.33,13.7,16.29
17.4951810836792,-3.41,-1.74,9.9,10.61
17.505260944366455,-4.26,-4.28,7.95,9.98
17.516415119171143,-6.47,2.65,11.03,13.05
17.525792121887207,-7.09,8.07,11.29,15.58
17.539443969726562,-6.44,11.39,11.76,17.59
17.545797109603882,-4.27,9.61,9.01,13.84
17.556153059005737,-3.45,7.24,7.32,10.85
17.5663480758667,-2.1,7.53,8.62,11.63
17.575751066207886,0.92,9.25,10.47,14.0
17.587244033813477,5.97,12.37,11.67,18.02
17.59570598602295,19.21,10.51,7.26,23.06
17.605582237243652,41.5,5.92,-3.03,42.02
17.615732192993164,58.11,7.85,-3.89,58.76
17.626320123672485,54.69,6.36,4.36,55.23
17.638119220733643,38.08,-4.01,10.39,39.67
17.645641088485718,24.5,-5.73,13.35,28.48
17.656748056411743,25.83,2.57,3.57,26.2
17.667137145996094,28.24,10.49,5.33,30.59
17.67555809020996,16.95,8.28,-6.77,20.04
17.68767023086548,-17.06,4.26,-43.86,47.25
17.69596290588379,-33.57,9.53,-23.36,41.99
17.70586395263672,-18.36,10.95,0.89,21.39
17.715868949890137,1.5,8.84,35.85,36.95
17.72581911087036,2.44,-6.24,33.99,34.64
17.73669195175171,-1.3,-20.38,-3.0,20.64
17.746514081954956,10.06,-14.73,-6.61,19.02
17.756463050842285,16.25,-0.15,1.65,16.33
17.767657041549683,9.83,7.99,4.85,13.56
17.777570247650146,5.01,7.24,-2.34,9.11
17.785892963409424,4.97,1.9,-11.17,12.37
17.796016216278076,-0.15,1.31,-12.77,12.83
17.805917024612427,-7.21,3.07,-4.54,9.05
17.815967082977295,-7.73,-1.74,15.59,17.48
17.82748794555664,-2.72,-9.03,7.48,12.03
17.836477041244507,1.07,-1.8,-3.73,4.27
17.84622097015381,1.22,4.27,1.46,4.67
17.85645294189453,-0.48,0.2,1.22,1.32
17.86859703063965,-1.18,-2.66,1.53,3.28
17.87704610824585,-1.37,-1.16,0.64,1.9
17.888256072998047,-0.96,0.54,-1.08,1.54
17.896240234375,-0.57,0.73,-0.87,1.27
17.90625309944153,-0.13,0.28,-0.53,0.61
17.916143894195557,0.07,0.12,0.07,0.15
17.926233053207397,-0.15,0.42,0.94,1.04
17.93698501586914,-0.55,0.17,0.67,0.88
17.94681215286255,-0.7,-0.13,-0.16,0.72
17.95669412612915,-0.58,0.31,-0.6,0.89
17.967604160308838,-0.19,0.69,-1.02,1.24
17.977219104766846,0.33,0.73,-1.32,1.54
17.986329078674316,0.6,0.78,-1.04,1.43
17.99644899368286,0.34,0.8,-0.3,0.91
18.006327152252197,-0.34,0.57,0.52,0.84
18.017081022262573,-0.99,0.28,0.77,1.28
18.026998043060303,-1.22,0.58,0.42,1.41
18.036757946014404,-1.04,1.35,-0.04,1.7
18.04663896560669,-0.76,1.78,-0.54,2.0
18.057037115097046,-0.58,1.76,-0.93,2.07
18.069091081619263,-0.6,1.87,-0.87,2.14
18.0782310962677,-0.88,2.38,-0.5,2.58
18.086518049240112,-1.39,3.03,-0.23,3.34
18.096668243408203,-2.07,3.37,-0.53,3.99
18.106553077697754,-2.67,3.36,-1.24,4.46
18.117280960083008,-2.93,3.39,-1.8,4.82
18.127230167388916,-3.03,3.81,-1.81,5.19
18.138092041015625,-3.28,4.79,-1.65,6.03
18.14688205718994,-3.76,6.74,-1.73,7.9
18.157814025878906,-4.53,9.69,-1.16,10.75
18.16928505897522,-5.74,12.83,-0.55,14.06
18.178679943084717,-7.29,13.95,-2.46,15.93
18.187355995178223,-8.99,13.61,-6.59,17.59
18.19853711128235,-10.67,13.14,-10.53,19.93
18.20697593688965,-10.65,12.71,-11.18,19.99
18.217411041259766,-7.32,13.22,-10.38,18.33
18.22754406929016,-4.69,15.27,-8.89,18.28
18.236783981323242,-6.12,12.91,-0.56,14.29
18.246899127960205,-10.23,8.45,3.4,13.69
18.25825810432434,-13.74,2.23,4.75,14.7
18.2679660320282,-14.16,0.26,7.14,15.86
18.278727054595947,-11.42,2.5,6.14,13.2
18.28922700881958,-11.87,3.44,0.88,12.38
18.297082901000977,-14.73,2.42,-3.38,15.3
18.307011127471924,-18.77,-0.79,-7.88,20.37
18.317294120788574,-21.12,-3.25,-9.2,23.26
18.32800602912903,-19.8,-2.74,-0.39,19.99
18.337690114974976,-18.06,-3.72,8.33,20.23
18.347780227661133,-15.0,-5.63,3.6,16.42
18.357707023620605,-11.91,-5.71,-1.01,13.24
18.36874508857727,-9.17,-5.26,-3.12,11.02
18.37943124771118,-7.6,-4.15,-3.77,9.44
18.387272119522095,-7.9,-2.21,-2.77,8.65
18.397293090820312,-8.83,-0.99,-2.1,9.13
18.40724205970764,-9.19,-1.06,-2.15,9.49
18.418297052383423,-8.66,-1.58,-1.74,8.97
18.427340030670166,-7.8,-1.75,-0.76,8.02
18.438231945037842,-6.88,-1.11,0.16,6.97
18.447360038757324,-5.89,0.11,0.45,5.9
18.457937240600586,-5.03,1.78,0.63,5.37
18.469561100006104,-4.05,3.57,1.16,5.52
18.47970199584961,-3.11,5.19,1.13,6.15
18.48749804496765,-2.27,7.29,0.78,7.67
18.497401237487793,-1.36,10.38,0.29,10.47
18.508064031600952,0.14,13.45,-1.84,13.57
18.51763606071472,3.38,16.35,-5.81,17.67
18.528189182281494,9.1,20.19,-9.17,23.96
18.53858208656311,16.07,21.02,-7.5,27.5
18.547898054122925,21.33,18.09,-2.45,28.07
18.557814121246338,25.47,13.57,0.11,28.85
18.567977905273438,28.96,8.86,1.24,30.31
18.580198049545288,29.53,5.42,2.11,30.09
18.587953090667725,29.71,2.49,6.07,30.42
18.59826111793518,35.52,-4.75,16.24,39.34
18.608243942260742,43.07,-11.87,12.43,46.37
18.618276119232178,40.61,-6.05,6.68,41.59
18.628467082977295,33.27,2.12,0.86,33.34
18.63829207420349,24.9,7.07,0.2,25.88
18.64839506149292,10.68,13.23,7.65,18.64
18.65819215774536,-8.04,11.59,-8.17,16.3
18.66856622695923,-32.68,6.98,-36.35,49.37
18.679873943328857,-29.68,8.75,-17.0,35.3
18.688337087631226,-2.72,9.82,28.86,30.6
18.697914123535156,6.82,3.6,36.42,37.22
18.707961082458496,3.47,-11.19,0.22,11.71
18.718996047973633,16.93,-14.26,-11.82,25.09
18.72798490524292,26.26,-5.29,-10.19,28.66
18.738670110702515,17.62,6.31,2.69,18.9
18.7479190826416,6.51,10.33,5.27,13.29
18.75975799560547,3.9,3.82,-4.54,7.1
18.77067518234253,1.21,-1.38,-10.46,10.61
18.781029224395752,-10.63,-1.82,-4.02,11.5
18.788055896759033,-19.96,-2.01,13.8,24.34
18.798707008361816,-10.53,-3.58,6.73,12.99
18.808137893676758,2.97,-1.5,-1.43,3.62
18.81888198852539,7.03,0.02,-0.43,7.04
18.828661918640137,5.23,0.31,1.89,5.56
18.838552951812744,1.96,-0.03,0.66,2.06
18.84858798980713,-1.08,-0.04,-1.82,2.11
18.85870599746704,-3.48,0.09,-0.21,3.48
18.870201110839844,-2.29,-0.29,0.23,2.31
18.88131809234619,0.91,0.23,-0.29,0.98
18.888269901275635,2.07,0.65,-0.23,2.18
18.89934206008911,0.86,0.25,0.52,1.03
18.908459186553955,-0.83,-0.35,0.87,1.25
18.918578147888184,-2.07,-0.42,0.61,2.19
18.928514003753662,-2.06,-0.09,0.37,2.09
18.939470052719116,-0.93,0.12,0.17,0.95
18.949182987213135,0.0,0.19,-0.07,0.2
18.960537910461426,-0.35,0.3,0.21,0.5
18.970426082611084,-1.14,0.0,0.53,1.25
18.981601238250732,-0.6,0.08,-0.71,0.93
18.988469123840332,-0.21,0.5,-0.03,0.54
18.998692989349365,-0.61,0.21,0.32,0.72
19.00851607322693,-0.99,0.33,-0.25,1.07
19.0191011428833,-1.01,0.66,-0.44,1.28
19.028682231903076,-1.0,0.81,-0.3,1.32
19.039506912231445,-0.87,0.93,-0.38,1.32
19.048700094223022,-1.01,1.19,-0.25,1.58
19.060784101486206,-1.27,1.7,-0.33,2.14
19.071059226989746,-1.47,1.79,-0.32,2.33
19.082324981689453,-1.53,0.49,0.2,1.61
19.088818073272705,-1.01,0.64,-1.03,1.57
19.098913192749023,-0.05,2.34,-1.67,2.87
19.10964608192444,-0.16,3.53,-1.08,3.69
19.119362115859985,-1.22,3.89,-1.57,4.36
19.129724979400635,-2.34,4.41,-1.7,5.27
19.138909101486206,-3.12,5.53,-1.32,6.48
19.14950203895569,-3.64,7.7,-0.84,8.55
19.161405086517334,-4.3,10.62,0.62,11.47
19.172029972076416,-5.85,13.16,1.19,14.45
19.182820081710815,-8.28,13.92,-0.39,16.2
19.18957209587097,-10.82,13.55,-3.4,17.67
19.1996910572052,-13.11,12.66,-6.4,19.31
19.210052967071533,-14.66,13.02,-6.6,20.68
19.219583988189697,-13.94,15.33,-2.25,20.84
19.22964310646057,-7.18,15.6,4.23,17.68
19.238989114761353,2.61,11.77,9.04,15.06
19.249922037124634,2.49,3.83,4.8,6.62
19.261878967285156,-7.16,0.71,1.35,7.32
19.27183508872986,-13.17,3.9,4.52,14.45
19.28304100036621,-14.18,6.0,3.33,15.75
19.289146900177002,-14.28,4.16,-1.83,14.98
19.299283027648926,-14.4,2.59,-2.94,14.92
19.31042504310608,-15.8,0.08,-3.04,16.08
19.319494247436523,-16.39,-2.0,-0.68,16.52
19.329309940338135,-15.75,-3.71,3.51,16.55
19.34067702293396,-14.55,-6.02,2.86,16.0
19.349512100219727,-12.52,-6.47,0.35,14.09
19.362097024917603,-10.16,-4.93,-0.63,11.31
19.371373176574707,-8.68,-3.4,-1.28,9.4
19.383270025253296,-8.26,-2.51,-2.1,8.88
19.389323234558105,-8.29,-2.08,-2.78,8.98
19.40003490447998,-8.42,-2.07,-3.21,9.24
19.41079092025757,-8.54,-2.13,-3.04,9.31
19.419453144073486,-8.82,-2.1,-2.39,9.37
19.429532051086426,-9.14,-1.73,-1.65,9.44
19.439366102218628,-8.98,-0.93,-0.96,9.07
19.450225114822388,-8.02,0.12,-0.77,8.05
19.46273708343506,-6.54,1.22,-1.21,6.76
19.471248149871826,-5.0,2.47,-2.35,6.05
19.483641147613525,-3.72,4.17,-3.64,6.66
19.489535093307495,-2.91,6.3,-4.84,8.46
19.499648094177246,-2.35,8.64,-5.5,10.5
19.51112413406372,-1.68,10.65,-5.7,12.19
19.52019500732422,-1.0,12.29,-5.87,13.65
19.530506134033203,-0.81,14.35,-5.97,15.56
19.540029048919678,-0.65,15.89,-6.73,17.26
19.55034589767456,1.55,17.26,-6.66,18.56
19.56298804283142,7.11,17.72,-6.9,20.3
19.571420192718506,18.24,17.27,-9.86,26.98
19.583903074264526,33.87,13.91,-16.8,40.28
19.590994119644165,39.78,9.88,-18.67,45.04
19.60048198699951,29.54,6.2,-12.11,32.52
19.611539125442505,19.63,-1.67,-7.53,21.09
19.62098002433777,17.45,-8.72,-2.73,19.69
19.62997817993164,20.1,-6.91,1.38,21.29
19.6408371925354,24.82,-4.13,-5.2,25.69
19.650620937347412,30.52,-8.47,-11.12,33.56
19.66369390487671,31.03,2.85,-2.79,31.28
19.67200207710266,20.77,22.36,-5.99,31.1
19.68419909477234,0.45,17.85,-30.63,35.45
19.690566062927246,-25.24,12.81,-39.14,48.3
19.700194120407104,-22.55,11.2,-11.18,27.54
19.710969924926758,-3.07,-0.89,10.96,11.41
19.720317125320435,3.87,-18.0,13.28,22.7
19.730227947235107,5.31,-10.94,17.36,21.19
19.74184513092041,6.57,-0.75,18.7,19.83
19.750614166259766,8.44,-0.66,13.76,16.15
19.762134075164795,6.83,-3.99,-6.6,10.3
19.772170066833496,7.7,4.53,-18.48,20.52
19.784770011901855,7.33,12.24,-18.66,23.48
19.790220022201538,1.27,7.26,-14.27,16.06
19.800347089767456,0.91,-1.85,-0.68,2.17
19.810352087020874,1.24,-7.04,9.94,12.24
19.820369243621826,-1.03,-2.05,12.22,12.43
19.83047604560852,-3.66,-0.36,3.16,4.84
19.84170413017273,-2.05,1.15,-6.24,6.66
19.851269245147705,1.39,2.87,-7.98,8.59
19.86105704307556,2.77,1.07,-2.46,3.85
19.871859073638916,2.29,-1.42,3.44,4.36
19.884861946105957,0.22,-1.59,4.69,4.95
19.890547037124634,-2.01,-0.57,1.75,2.72
19.901066064834595,-2.09,0.53,-1.94,2.9
19.91054105758667,-0.45,0.93,-3.33,3.48
19.921603202819824,0.65,0.52,-1.63,1.83
19.932491064071655,0.16,-0.53,1.2,1.32
19.940864086151123,-0.97,-1.14,2.82,3.19
19.9510760307312,-1.78,-0.79,2.62,3.26
19.961894035339355,-1.81,-0.4,1.12,2.16
19.97410011291504,-1.01,0.11,-0.62,1.19
19.9859619140625,-0.14,0.64,-1.65,1.77
19.991793155670166,0.15,0.94,-1.69,1.93
20.001529216766357,-0.13,0.83,-1.15,1.42
20.010828018188477,-0.63,0.52,-0.44,0.92
20.021152019500732,-0.98,0.39,0.21,1.07
20.031204223632812,-0.98,0.31,0.25,1.05
20.042108058929443,-0.46,0.39,-0.27,0.66
20.051508903503418,0.19,0.95,-0.81,1.26
20.061628103256226,0.31,1.69,-0.88,1.93
20.071150064468384,-0.51,1.99,-0.49,2.11
20.085575103759766,-1.73,1.7,-0.06,2.42
20.09066104888916,-2.46,2.03,0.44,3.21
20.102410078048706,-2.58,3.31,1.05,4.32
20.11184310913086,-2.68,3.71,0.93,4.67
20.121673107147217,-3.04,3.89,0.52,4.96
20.132676124572754,-3.58,5.12,0.32,6.25
20.141662120819092,-4.27,6.24,-0.04,7.56
20.152611017227173,-4.82,7.08,-0.66,8.59
20.161749124526978,-5.4,8.24,-1.27,9.93
20.173593044281006,-6.15,9.59,-2.05,11.57
20.183122158050537,-6.82,10.74,-2.97,13.06
20.191354036331177,-7.25,11.98,-3.84,14.51
20.201155185699463,-6.98,13.21,-4.4,15.57
20.21171998977661,-4.82,13.54,-8.99,16.95
20.22154402732849,-0.99,11.68,-19.64,22.87
20.231847047805786,-1.59,8.97,-23.14,24.86
20.242055892944336,-3.95,3.23,-12.77,13.75
20.251399040222168,-2.07,-10.55,22.47,24.9
20.261961936950684,1.16,-21.79,14.75,26.33
20.272568225860596,-3.16,-11.96,-3.1,12.75
20.286262035369873,-10.13,1.18,-2.16,10.42
20.291531085968018,-13.99,2.69,-8.61,16.64
20.30153799057007,-18.03,-0.05,-7.37,19.47
20.311917066574097,-21.24,-7.25,-5.23,23.04
20.321557998657227,-16.0,-9.55,-5.33,19.38
20.3315372467041,-7.74,-5.19,-7.03,11.67
20.342501163482666,-4.56,-0.97,-8.04,9.29
20.352231979370117,-2.86,1.3,-7.25,7.9
20.362171173095703,-1.02,1.57,-5.93,6.21
20.37176203727722,-2.38,-0.08,-3.71,4.4
20.387338161468506,-6.21,-2.12,-0.43,6.57
20.39158821105957,-9.8,-2.74,0.58,10.19
20.402244091033936,-12.19,-0.98,-0.5,12.23
20.41218900680542,-12.6,1.93,-2.15,12.92
20.422157049179077,-10.91,4.18,-3.83,12.29
20.43208122253418,-7.85,5.19,-5.01,10.66
20.441955089569092,-5.48,5.95,-5.5,9.78
20.452045917510986,-3.94,7.04,-5.79,9.93
20.462276935577393,-2.93,8.17,-6.37,10.76
20.471554040908813,-2.4,9.31,-6.89,11.82
20.48427104949951,-2.2,10.19,-7.3,12.72
20.492440223693848,-1.94,10.45,-7.93,13.26
20.502357006072998,-1.48,9.8,-9.66,13.84
20.51259422302246,-0.81,8.72,-12.46,15.22
20.522401094436646,0.75,7.55,-15.43,17.19
20.532360076904297,3.45,6.12,-18.21,19.51
20.54229497909546,6.7,4.37,-20.51,22.01
20.552385091781616,10.36,2.8,-21.29,23.84
20.562386989593506,14.44,1.71,-20.3,24.97
20.57346510887146,17.39,1.17,-18.44,25.37
20.587852001190186,17.38,0.54,-15.65,23.39
20.592231035232544,15.02,-0.38,-11.48,18.9
20.602095127105713,12.26,-2.12,-7.72,14.64
20.613236904144287,10.3,-4.73,-5.47,12.58
20.62213897705078,10.16,-4.22,-4.05,11.72
20.63212490081787,12.33,7.14,-10.06,17.44
20.642269134521484,14.33,15.18,-20.46,29.23
20.65249490737915,8.21,14.74,-17.91,24.6
20.66253900527954,-9.76,0.39,-11.16,14.83
20.67202615737915,-22.64,-10.78,-1.13,25.1
20.686502933502197,-16.08,-1.01,11.22,19.63
20.691986083984375,-8.12,0.01,23.38,24.74
20.70348310470581,-4.62,-3.94,16.89,17.94
20.7125301361084,-0.36,-6.52,5.92,8.81
20.723050117492676,7.34,-5.04,-12.92,15.69
20.7325758934021,9.58,7.52,-15.37,19.61
20.742939949035645,10.85,8.8,-7.51,15.86
20.75272512435913,10.18,0.02,-2.56,10.49
20.763646125793457,2.42,-2.22,0.79,3.37
20.774278163909912,-6.93,-0.41,1.57,7.11
20.785656929016113,-9.87,0.13,1.76,10.02
20.792668104171753,-6.4,-0.53,2.86,7.02
20.802553176879883,-0.85,-1.19,2.85,3.2
20.813671112060547,2.84,-0.63,0.97,3.06
20.82301616668701,3.71,0.36,-0.91,3.83
20.83280611038208,2.56,0.77,-1.58,3.1
20.84319806098938,0.51,0.34,-1.09,1.25
20.853426933288574,-1.37,-0.02,-0.01,1.37
20.863306045532227,-2.13,-0.03,0.6,2.21
20.875120162963867,-1.53,-0.05,0.49,1.6
20.889370918273926,-0.18,-0.05,0.03,0.18
20.89286994934082,0.92,0.01,-0.34,0.98
20.902790069580078,1.34,0.05,-0.24,1.36
20.91340923309326,1.24,0.04,0.24,1.26
20.922901153564453,0.61,-0.27,0.51,0.83
20.934429168701172,-0.28,-0.26,0.56,0.67
20.943490028381348,-0.84,0.08,0.4,0.93
20.953651905059814,-0.85,0.12,0.12,0.86
20.963271141052246,-0.51,0.0,-0.06,0.51
20.973831176757812,-0.13,0.04,-0.08,0.15
20.98939323425293,0.12,0.18,-0.05,0.22
20.993370056152344,0.16,0.15,-0.21,0.3
21.00306797027588,0.01,0.22,-0.22,0.31
21.013973236083984,-0.24,0.33,-0.19,0.45
21.022963047027588,-0.5,0.38,-0.12,0.63
21.034564971923828,-0.67,0.23,-0.04,0.7
21.04308795928955,-0.84,0.13,0.23,0.88
21.053458213806152,-1.0,0.02,0.43,1.08
21.063451051712036,-1.14,0.05,0.34,1.19
21.07425594329834,-1.21,0.18,0.17,1.23
21.09014892578125,-1.22,0.36,-0.05,1.27
21.093539237976074,-1.2,0.52,-0.24,1.32
21.103069067001343,-1.13,0.59,-0.11,1.27
21.113131999969482,-1.06,0.35,0.03,1.11
21.12319302558899,-0.95,0.59,0.11,1.12
21.13310408592224,-0.96,1.36,-0.09,1.66
21.144235134124756,-1.15,1.99,-0.5,2.35
21.153114080429077,-1.35,2.71,-0.47,3.06
21.164052963256836,-1.77,5.16,2.78,6.12
21.174530029296875,-3.05,5.38,5.08,8.0
21.190113067626953,-5.61,1.28,3.28,6.62
21.193401098251343,-6.2,0.28,-2.05,6.53
21.20339012145996,-5.86,3.81,-1.32,7.11
21.214448928833008,-4.85,6.32,-2.43,8.32
21.223459243774414,-4.04,7.18,-4.81,9.53
21.235750198364258,-3.37,8.0,-6.64,10.92
21.243629932403564,-2.26,9.11,-8.63,12.75
21.253878116607666,-1.06,10.15,-11.01,15.01
21.26407504081726,-0.67,11.22,-12.9,17.1
21.275719165802002,-1.34,11.61,-14.06,18.28
21.29030704498291,-2.79,11.27,-14.3,18.41
21.293872117996216,-4.63,10.79,-15.21,19.21
21.304023027420044,-6.52,10.3,-15.55,19.75
21.313714027404785,-6.28,9.06,-9.3,14.42
21.323731899261475,-7.09,1.84,6.06,9.5
21.33486795425415,-8.51,-8.23,12.99,17.57
21.344738006591797,-3.87,-10.13,7.31,13.07
21.353687047958374,-1.65,-2.91,4.39,5.51
21.366831064224243,-9.07,1.97,-0.85,9.32
21.376277923583984,-16.94,1.7,-7.03,18.41
21.39095401763916,-23.25,-0.4,-10.92,25.68
21.393714904785156,-24.87,-2.5,-7.56,26.11
21.403770923614502,-19.68,-4.31,0.72,20.15
21.4138081073761,-12.49,-6.28,-1.17,14.02
21.423873901367188,-8.12,-7.19,-5.52,12.16
21.43658208847046,-5.31,-5.37,-4.83,8.96
21.444302082061768,-3.95,-2.42,-2.27,5.15
21.454381942749023,-4.02,-0.58,-1.5,4.32
21.46430206298828,-4.33,0.05,-1.92,4.73
21.475999116897583,-4.64,-0.15,-2.36,5.2
21.491610050201416,-5.46,-0.67,-2.07,5.87
21.49407196044922,-6.7,-0.85,-0.16,6.75
21.504082202911377,-7.38,-0.65,2.37,7.77
21.514101028442383,-6.71,0.12,3.22,7.44
21.52407693862915,-5.11,1.4,2.55,5.88
21.537622928619385,-4.25,3.23,2.61,5.94
21.544331073760986,-3.28,5.06,3.25,6.85
21.55449390411377,-1.74,6.43,4.01,7.77
21.564325094223022,0.19,7.32,3.5,8.11
21.57570219039917,2.78,8.13,1.8,8.77
21.591867923736572,6.45,11.07,1.93,12.95
21.594284057617188,11.73,14.43,2.4,18.75
21.60468816757202,18.77,14.74,1.88,23.93
21.614907026290894,25.54,11.95,1.53,28.23
21.625014066696167,29.7,8.75,3.87,31.2
21.635935068130493,31.51,4.8,10.04,33.41
21.64488410949707,31.08,-3.11,24.75,39.85
21.65513801574707,29.02,-10.36,23.78,38.92
21.665101051330566,27.11,-8.28,8.79,29.67
21.675151109695435,27.28,-1.4,4.92,27.75
21.691861152648926,26.7,2.09,5.63,27.36
21.69466805458069,17.21,6.04,3.79,18.62
21.70443606376648,8.72,5.31,-3.2,10.69
21.714518070220947,-4.94,9.76,-15.67,19.11
21.725018978118896,-32.44,9.48,-33.43,47.53
21.736356019973755,-27.88,10.92,-10.07,31.59
21.745145082473755,-3.28,9.62,31.55,33.14
21.754558086395264,-1.32,-4.6,18.84,19.43
21.76566505432129,3.01,-14.18,-6.69,15.96
21.775809049606323,16.61,-10.41,-9.14,21.62
21.784651041030884,19.08,-0.77,2.28,19.23
21.794445991516113,9.64,6.13,8.08,13.99
21.804697036743164,6.01,5.27,1.22,8.08
21.81466007232666,6.09,0.94,-4.15,7.42
21.82471799850464,-1.45,-2.22,-2.01,3.32
21.83758020401001,-12.02,-2.58,0.84,12.32
21.845269203186035,-11.95,0.08,1.36,12.02
21.855459213256836,-0.8,0.97,0.52,1.36
21.865320205688477,6.34,-0.27,0.99,6.42
21.877334117889404,4.91,-1.43,3.05,5.95
21.884822130203247,0.16,-1.48,2.94,3.29
21.895450115203857,-3.22,-0.68,2.31,4.02
21.90503692626953,-4.84,-0.7,2.75,5.61
21.91496515274048,-3.71,-1.03,1.45,4.11
21.92496109008789,-0.82,-0.45,-0.5,1.06
21.93583106994629,1.69,0.33,-1.88,2.54
21.945256233215332,2.07,1.04,-1.24,2.62
21.95526123046875,0.98,1.07,-0.15,1.45
21.96550703048706,-0.94,0.31,0.3,1.03
21.97687005996704,-2.63,-0.22,0.67,2.72
21.9849750995636,-2.57,-0.37,0.28,2.61
21.995220184326172,-1.28,-0.12,0.01,1.28
22.00564193725586,-0.58,0.05,-0.36,0.68
22.01521611213684,0.19,0.26,-0.63,0.7
22.025243043899536,1.02,0.39,-0.65,1.27
22.036721229553223,1.46,0.5,-0.48,1.61
22.045730113983154,1.38,0.63,0.04,1.51
22.05573010444641,0.42,0.72,0.2,0.85
22.065592050552368,-0.56,0.8,0.27,1.01
22.07834506034851,-0.94,1.04,0.51,1.49
22.085374116897583,-0.79,1.26,0.44,1.55
22.09584403038025,-0.59,1.51,0.38,1.66
22.105292081832886,-0.66,1.69,0.22,1.82
22.115392208099365,-1.06,1.97,0.31,2.25
22.126286029815674,-1.46,2.6,0.68,3.05
22.135720014572144,-1.49,2.74,-0.72,3.2
22.145813941955566,-2.26,3.25,-0.92,4.06
22.155970096588135,-3.47,3.69,0.11,5.06
22.16571307182312,-3.26,3.65,-0.16,4.89
22.17865514755249,-2.7,4.47,-0.88,5.29
22.185798168182373,-2.87,6.42,-1.22,7.13
22.19703507423401,-3.33,9.02,-1.07,9.67
22.205492973327637,-4.17,11.64,-1.21,12.42
22.216154098510742,-5.68,13.12,-2.84,14.57
22.22636318206787,-7.71,13.78,-5.63,16.76
22.236133098602295,-9.78,14.04,-8.16,18.95
22.246284008026123,-10.5,14.17,-8.22,19.45
22.256629943847656,-10.16,12.88,-5.61,17.33
22.266260147094727,-10.24,9.95,-1.73,14.38
22.278194904327393,-8.05,8.41,6.8,13.48
22.285694122314453,-6.15,6.56,11.98,14.97
22.29597806930542,-9.57,2.71,4.97,11.11
22.30573797225952,-12.56,0.31,-0.09,12.56
22.316878080368042,-11.79,2.06,0.65,11.98
22.325836181640625,-8.73,5.92,3.26,11.04
22.33663320541382,-6.87,6.88,3.35,10.28
22.345964908599854,-9.08,2.35,-1.99,9.58
22.356494903564453,-13.11,-1.53,-6.49,14.7
22.366228103637695,-15.74,-1.82,-5.78,16.86
22.378700017929077,-15.55,-1.25,-2.79,15.84
22.38601303100586,-13.3,-1.91,-0.72,13.45
22.396135091781616,-11.38,-2.86,1.37,11.81
22.40590190887451,-10.25,-4.05,4.27,11.81
22.416184902191162,-9.17,-5.24,4.13,11.34
22.427717208862305,-8.19,-5.18,1.83,9.86
22.436578035354614,-7.33,-4.12,0.33,8.41
22.44623303413391,-6.66,-2.96,-0.69,7.32
22.456114053726196,-6.92,-2.11,-1.62,7.41
22.466966152191162,-7.8,-1.5,-2.45,8.31
22.478928089141846,-8.37,-0.92,-2.62,8.81
22.48612689971924,-8.18,-0.71,-2.32,8.53
22.496387004852295,-7.41,-0.81,-1.72,7.65
22.506200075149536,-6.46,-0.78,-0.88,6.56
22.51629400253296,-5.55,-0.47,-0.33,5.57
22.526235103607178,-4.74,0.32,0.08,4.75
22.53697919845581,-4.08,1.45,0.21,4.33
22.547082901000977,-3.57,2.81,-0.28,4.55
22.556709051132202,-3.05,4.67,-1.05,5.67
22.567058086395264,-2.54,7.23,-1.81,7.87
22.579405069351196,-1.78,10.32,-2.52,10.77
22.587109088897705,-0.55,13.42,-3.89,13.98
22.596375942230225,1.7,16.07,-6.59,17.45
22.60631799697876,5.63,17.88,-8.58,20.61
22.617244243621826,10.84,17.43,-7.16,21.73
22.627234935760498,15.42,15.53,-4.04,22.25
22.637062072753906,19.45,12.23,-2.59,23.12
22.64721393585205,24.04,8.49,-1.85,25.56
22.656654119491577,27.92,4.35,-1.48,28.29
22.667212963104248,29.92,1.29,-0.59,29.95
22.67851209640503,31.46,-1.36,1.77,31.53
22.687201023101807,32.66,-6.75,7.06,34.08
22.69655704498291,32.19,-11.66,7.81,35.11
22.706746101379395,28.79,-9.59,5.24,30.79
22.717050075531006,25.01,-4.11,3.58,25.59
22.726704120635986,19.54,3.7,5.67,20.67
22.736743927001953,10.77,9.14,5.85,15.28
22.747637033462524,-1.97,6.41,-9.71,11.8
22.757383108139038,-14.14,13.66,-40.16,44.71
22.76702308654785,-15.94,16.87,-27.12,35.69
22.780056953430176,-9.24,4.89,-1.21,10.52
22.786893129348755,1.21,3.79,8.47,9.35
22.797253131866455,6.19,1.38,10.76,12.48
22.806808948516846,9.32,-8.66,6.7,14.37
22.81696105003357,14.02,-11.87,6.51,19.48
22.82689094543457,16.72,-4.34,7.74,18.92
22.836888074874878,14.82,3.15,8.69,17.46
22.847708225250244,10.84,3.29,6.06,12.84
22.85877513885498,2.19,-4.07,-10.58,11.54
22.867335081100464,-2.94,1.44,-10.58,11.07
22.88046407699585,-8.1,8.89,-7.18,14.0
22.88702392578125,-13.59,5.53,-9.9,17.69
22.897627115249634,-9.73,2.17,-3.63,10.6
22.907012939453125,-2.03,-3.15,2.05,4.27
22.917227029800415,3.81,-6.82,7.57,10.87
22.927237033843994,7.05,-5.64,13.71,16.41
22.937607049942017,5.72,-2.31,7.73,9.88
22.94722890853882,2.68,-0.76,0.11,2.78
22.957245111465454,-0.53,0.36,-3.24,3.3
22.967161178588867,-3.05,1.89,-4.08,5.43
22.98091411590576,-4.03,2.75,-3.25,5.86
22.987672090530396,-3.33,1.81,-2.46,4.51
22.997894048690796,-1.57,0.25,-1.47,2.16
23.007183074951172,0.26,-0.4,0.27,0.54
23.018383026123047,1.46,-0.44,1.89,2.42
23.02739715576172,1.77,-0.56,2.79,3.35
23.03806710243225,1.12,-0.77,2.88,3.18
23.048041105270386,-0.01,-0.72,2.02,2.14
23.059515953063965,-1.16,-0.29,0.82,1.44
23.067853927612305,-1.93,0.23,-0.21,1.95
23.079902172088623,-1.93,0.55,-0.96,2.22
23.088429927825928,-1.34,0.78,-1.14,1.92
23.09808611869812,-0.61,0.82,-0.8,1.29
23.107373237609863,-0.11,0.61,-0.23,0.66
23.118628978729248,0.02,0.41,0.27,0.49
23.127546072006226,-0.21,0.39,0.63,0.77
23.138830184936523,-0.6,0.66,0.74,1.15
23.148140907287598,-0.99,1.48,0.8,1.95
23.159902095794678,-1.69,1.27,0.4,2.15
23.16795802116394,-2.14,0.57,0.15,2.21
23.180471897125244,-2.17,0.16,0.35,2.2
23.1876220703125,-1.83,0.22,0.65,1.95
23.197819232940674,-1.32,1.04,0.43,1.73
23.208750247955322,-0.93,2.26,-0.34,2.46
23.2188560962677,-0.85,3.24,-1.28,3.58
23.22776222229004,-0.91,3.98,-2.03,4.55
23.238778114318848,-1.14,4.61,-2.47,5.35
23.248050212860107,-1.67,5.56,-2.47,6.3
23.26027512550354,-2.46,7.17,-2.22,7.89
23.268197059631348,-3.33,9.05,-1.95,9.83
23.282879114151,-4.18,11.49,-1.32,12.29
23.288856983184814,-5.07,14.05,-1.5,15.01
23.298798084259033,-6.38,14.7,-4.72,16.7
23.309133052825928,-8.3,14.57,-8.45,18.77
23.31853723526001,-10.69,14.4,-9.38,20.23
23.328092098236084,-11.82,14.06,-7.03,19.66
23.337960243225098,-10.61,12.23,-3.1,16.48
23.348605155944824,-9.0,10.11,1.17,13.58
23.359214067459106,-8.45,8.09,4.89,12.67
23.369431018829346,-9.58,3.29,6.04,11.79
23.386168956756592,-10.34,-1.55,6.97,12.56
23.38827610015869,-8.8,-1.22,6.93,11.26
23.39817523956299,-8.2,1.32,4.26,9.33
23.40949296951294,-10.66,2.27,0.63,10.91
23.418347120285034,-15.97,-0.11,-4.15,16.5
23.42819595336914,-18.87,-2.08,-6.89,20.19
23.439080238342285,-16.61,-1.17,-4.29,17.19
23.448853015899658,-12.86,-0.77,0.56,12.89
23.461827039718628,-10.31,-2.97,2.92,11.11
23.46879291534424,-9.18,-5.32,1.98,10.79
23.486440181732178,-7.97,-6.62,0.27,10.36
23.488344192504883,-6.43,-6.03,-0.07,8.81
23.49848508834839,-5.82,-4.19,0.65,7.2
23.50978422164917,-6.29,-3.0,0.67,7.0
23.519479036331177,-7.38,-2.57,-0.3,7.82
23.528910160064697,-8.65,-2.38,-1.08,9.03
23.53897523880005,-9.55,-2.27,-1.19,9.88
23.548821926116943,-9.83,-1.9,-0.35,10.01
23.561192989349365,-9.4,-1.16,0.99,9.52
23.56887197494507,-8.33,-0.18,1.83,8.53
23.582167148590088,-7.15,1.11,2.09,7.53
23.58850622177124,-5.92,2.56,2.28,6.84
23.598752975463867,-4.47,3.93,2.22,6.35
23.610316038131714,-2.73,5.31,1.34,6.11
23.619640111923218,-1.41,7.85,0.21,7.97
23.628627061843872,-0.85,11.81,-0.87,11.87
23.64018201828003,-0.68,16.06,-2.52,16.27
23.64880108833313,0.5,18.65,-5.3,19.39
23.660385131835938,4.71,19.09,-7.27,20.96
23.66980791091919,10.37,17.75,-6.63,21.59
23.686086177825928,15.6,15.41,-5.14,22.52
23.68917989730835,21.55,11.68,-4.89,24.99
23.700045108795166,27.12,6.66,-6.76,28.73
23.710480213165283,27.75,4.38,-5.53,28.63
23.719444036483765,25.07,2.68,-3.92,25.51
23.72896909713745,24.08,-1.27,-3.54,24.37
23.739586114883423,26.31,-5.55,-2.31,26.98
23.749665021896362,29.63,-5.29,0.03,30.09
23.760658025741577,31.16,-2.44,-2.32,31.34
23.769511222839355,29.74,-0.49,-6.64,30.47
23.78599214553833,26.32,-1.61,-8.45,27.69
23.78880500793457,22.51,-0.5,-4.34,22.93
23.799063205718994,10.1,13.16,-2.24,16.73
23.811023235321045,-32.41,6.05,-39.89,51.75
23.8198561668396,-61.61,4.66,-48.99,78.85
23.829199075698853,-24.25,22.71,-0.7,33.23
23.83968710899353,1.56,9.24,19.43,21.57
23.849517107009888,11.4,-5.93,33.08,35.48
23.861225128173828,10.08,-16.59,10.91,22.26
23.86916208267212,19.25,-14.52,-3.28,24.33
23.88713002204895,22.66,-2.39,-2.12,22.88
23.88910412788391,11.5,-0.29,-5.65,12.81
23.89926290512085,-0.23,5.33,-4.78,7.16
23.90968894958496,1.82,11.35,5.99,12.96
23.920392990112305,0.53,3.01,-3.77,4.85
23.929240226745605,-6.27,-4.05,-13.24,15.19
23.94000005722046,-6.4,2.81,-3.53,7.83
23.949793100357056,-3.39,4.81,3.07,6.63
23.959968090057373,0.17,-1.29,2.04,2.41
23.969887018203735,5.01,-3.98,2.59,6.9
23.98921012878418,7.33,-1.87,3.56,8.36
23.99133801460266,4.91,-0.02,1.41,5.1
23.999998092651367,0.96,0.9,-1.67,2.12
24.011384963989258,-1.77,1.42,-3.0,3.76
24.01955795288086,-3.27,0.75,-2.75,4.33
24.03031015396118,-2.93,-0.04,-0.66,3.0
24.039972066879272,-0.96,-0.53,1.92,2.21
24.049959182739258,0.74,-1.16,2.91,3.21
24.060144901275635,1.28,-1.11,1.89,2.53
24.07003116607666,0.8,-0.16,-0.01,0.81
24.091658115386963,-0.06,0.53,-1.54,1.62
24.092845916748047,-0.76,0.46,-1.67,1.89
24.099605083465576,-1.14,-0.15,-0.53,1.26
24.11157512664795,-1.16,-0.62,0.92,1.6
24.12070608139038,-0.87,-0.61,1.84,2.12
24.130439043045044,-0.58,-0.57,1.59,1.78
24.14010524749756,-0.33,-0.18,0.6,0.7
24.150458097457886,-0.15,0.29,-0.36,0.48
24.160394191741943,-0.08,0.53,-0.95,1.09
24.170351028442383,-0.16,0.61,-1.03,1.2
24.191720962524414,-0.34,0.62,-0.75,1.03
24.192891120910645,-0.49,0.48,-0.44,0.81
24.200311183929443,-0.53,0.39,-0.17,0.67
24.21090006828308,-0.64,0.48,0.1,0.8
24.219958066940308,-0.88,0.58,0.27,1.08
24.230000972747803,-1.26,0.67,0.29,1.45
24.240912914276123,-1.62,0.72,0.3,1.79
24.251039028167725,-1.68,0.59,0.26,1.79
24.260488033294678,-1.67,0.58,0.3,1.79
24.27070903778076,-1.47,1.05,0.56,1.89
24.292713165283203,-1.27,2.87,1.64,3.54
24.29387903213501,-1.74,3.26,1.4,3.95
24.300128936767578,-2.9,2.03,0.68,3.6
24.31200909614563,-3.58,2.45,0.16,4.34
24.320287227630615,-4.0,4.31,0.37,5.89
24.330080032348633,-4.24,5.9,-0.32,7.27
24.34116220474243,-4.42,7.28,-1.2,8.6
24.350150108337402,-4.51,9.01,-1.48,10.18
24.36088991165161,-4.73,10.9,-1.46,11.97
24.371050119400024,-4.96,12.15,-2.12,13.29
24.387927055358887,-5.15,12.98,-3.42,14.37
24.390942096710205,-5.13,13.76,-4.65,15.4
24.400782108306885,-5.37,14.75,-5.57,16.65
24.410923957824707,-7.61,14.92,-6.03,17.8
24.420958995819092,-11.15,13.79,-8.54,19.68
24.430350065231323,-14.72,13.51,-13.5,24.11
24.44046902656555,-16.45,7.64,-9.38,20.41
24.450469970703125,-13.82,1.53,-2.38,14.1
24.46139621734619,-8.7,-3.55,13.0,16.04
24.47091293334961,-8.08,-6.42,11.11,15.16
24.488708972930908,-8.78,-5.08,0.17,10.14
24.490756034851074,-6.09,-1.8,-3.48,7.24
24.500471115112305,-5.37,-0.25,-6.71,8.59
24.510673999786377,-9.89,-1.32,-8.94,13.39
24.520658016204834,-15.03,-1.97,-8.51,17.38
24.530714988708496,-15.59,-2.36,-6.97,17.23
24.541418075561523,-12.45,-3.69,-4.64,13.78
24.551167011260986,-8.45,-5.18,-3.3,10.44
24.56093120574951,-5.92,-6.05,-3.75,9.25
24.5711190700531,-4.77,-5.59,-4.19,8.45
24.590147972106934,-4.24,-3.6,-3.65,6.65
24.592267990112305,-3.93,-1.44,-3.23,5.28
24.601813077926636,-4.19,-0.64,-4.07,5.87
24.61086416244507,-5.37,-1.27,-6.1,8.22
24.620960235595703,-7.06,-1.75,-7.6,10.51
24.630960941314697,-8.36,-1.1,-7.06,10.99
24.641444206237793,-8.66,-0.18,-5.52,10.27
24.651391983032227,-7.86,0.28,-4.2,8.91
24.661062240600586,-6.36,0.53,-3.42,7.24
24.671287059783936,-4.62,0.96,-3.24,5.72
24.692137241363525,-3.07,1.98,-3.43,5.01
24.69311809539795,-1.83,3.76,-3.88,5.7
24.701451063156128,-0.72,5.93,-4.96,7.76
24.711552143096924,0.38,8.42,-6.3,10.52
24.721092224121094,1.44,11.14,-7.58,13.55
24.731256008148193,2.53,13.22,-8.37,15.85
24.741676092147827,3.9,14.26,-8.68,17.14
24.7517409324646,5.86,14.64,-8.42,17.87
24.761667013168335,8.4,14.84,-6.98,18.42
24.771678924560547,11.23,14.36,-5.81,19.13
24.78865098953247,15.15,12.59,-5.82,20.54
24.792034149169922,20.81,10.05,-4.61,23.56
24.802099227905273,25.43,8.24,-0.96,26.74
24.81121802330017,24.44,4.84,1.7,24.97
24.82236099243164,19.07,0.83,2.33,19.22
24.831332206726074,16.01,-3.48,5.05,17.14
24.842191219329834,20.83,-9.26,6.79,23.78
24.851594924926758,26.34,-9.39,1.88,28.02
24.861921072006226,27.57,-2.15,1.51,27.69
24.87180995941162,24.87,3.7,4.8,25.59
24.892511129379272,16.03,11.05,9.33,21.58
24.893688201904297,-0.66,9.0,-4.18,9.94
24.90147113800049,-24.31,0.44,-33.34,41.26
24.912073135375977,-25.15,15.21,-26.74,39.73
24.922511100769043,-10.28,13.93,-5.56,18.18
24.93139123916626,-0.7,1.59,-0.21,1.74
24.942376136779785,8.17,-2.88,1.84,8.85
24.951993942260742,13.81,-8.23,1.19,16.12
24.96183204650879,14.72,-8.96,2.93,17.47
24.9721999168396,11.66,-2.04,10.21,15.63
24.99204111099243,6.69,2.68,15.55,17.13
24.993621110916138,4.43,0.98,12.17,12.98
25.00166893005371,1.94,-4.32,3.71,6.01
25.012596130371094,-2.72,-5.42,-3.05,6.78
25.02170205116272,-6.7,-0.23,-5.76,8.83
25.031516075134277,-7.8,6.49,-5.76,11.66
25.042468070983887,-5.83,7.87,-8.23,12.79
25.052255153656006,0.23,5.42,-9.09,10.58
25.06188702583313,7.01,3.11,-7.16,10.49
25.072391986846924,9.9,0.1,-3.92,10.64
25.093160152435303,8.89,-3.7,1.38,9.72
25.09431791305542,5.67,-3.26,6.73,9.38
25.102261066436768,-0.16,-2.29,6.71,7.09
25.112921237945557,-7.26,-2.41,3.66,8.48
25.121968030929565,-10.83,-0.75,1.75,10.99
25.131859064102173,-9.14,0.45,1.76,9.31
25.14332914352417,-3.69,-0.58,1.34,3.96
25.15247917175293,2.5,-1.22,-0.5,2.82
25.162379026412964,6.58,0.0,-2.17,6.92
25.172329902648926,7.16,1.45,-3.44,8.07
25.193207025527954,4.68,1.7,-3.78,6.25
25.19437313079834,0.8,0.6,-2.51,2.7
25.20200204849243,-2.56,-0.53,1.09,2.83
25.213004112243652,-4.76,-1.63,5.34,7.33
25.22313404083252,-4.48,-1.76,4.09,6.31
25.234193086624146,-2.08,-0.57,0.12,2.16
25.243216037750244,-0.11,0.3,-1.09,1.13
25.252623081207275,1.61,0.45,-1.33,2.13
25.262612104415894,2.57,0.48,-1.08,2.82
25.272676944732666,2.31,0.56,-0.69,2.47
25.29180097579956,1.2,0.58,-0.48,1.41
25.293375968933105,-0.05,0.35,-0.35,0.49
25.302380084991455,-0.93,0.15,-0.18,0.95
25.312907218933105,-1.32,0.1,0.12,1.32
25.322400093078613,-1.23,0.18,0.26,1.27
25.333506107330322,-0.92,0.3,0.18,0.98
25.343127012252808,-0.67,0.55,0.06,0.86
25.352756023406982,-0.55,0.67,-0.06,0.86
25.362930059432983,-0.58,0.74,-0.11,0.94
25.37287402153015,-0.83,0.81,-0.01,1.15
25.390562057495117,-1.23,0.88,0.1,1.51
25.39256715774536,-1.56,0.81,0.22,1.77
25.402640104293823,-1.69,1.61,0.87,2.49
25.413783073425293,-2.0,1.69,1.32,2.93
25.422585010528564,-3.02,-0.86,1.61,3.52
25.435225009918213,-2.67,-1.46,0.63,3.1
25.442695140838623,-1.48,1.13,0.55,1.94
25.45263409614563,-0.87,2.86,-0.42,3.01
25.4634211063385,-1.05,3.48,-1.55,3.95
25.473412036895752,-1.33,4.19,-1.89,4.78
25.49126100540161,-1.62,5.44,-1.45,5.85
25.49256706237793,-2.0,6.81,-0.91,7.15
25.50287389755249,-2.52,8.4,-0.44,8.78
25.512731075286865,-3.39,10.33,-0.68,10.89
25.52339005470276,-4.7,10.82,-2.89,12.14
25.53431010246277,-6.25,11.27,-5.85,14.15
25.543421030044556,-7.65,13.2,-7.14,16.84
25.553186893463135,-8.81,14.98,-8.11,19.17
25.56342315673828,-9.5,14.46,-9.42,19.69
25.573191165924072,-9.14,13.02,-8.59,18.07
25.590434074401855,-8.59,10.11,-5.06,14.19
25.593109130859375,-8.64,6.67,0.73,10.93
25.603060245513916,-7.28,4.81,13.39,15.98
25.613848209381104,-7.8,1.96,12.4,14.77
25.623042106628418,-10.43,-0.07,1.38,10.52
25.63618803024292,-10.61,1.8,-0.35,10.76
25.64328408241272,-9.6,5.05,0.33,10.85
25.65395712852478,-10.95,4.15,-3.04,12.09
25.66346311569214,-13.48,1.38,-6.37,14.97
25.673487186431885,-14.57,-0.4,-6.81,16.08
25.692781925201416,-13.28,-1.49,-5.5,14.45
25.694345951080322,-10.7,-2.28,-2.87,11.31
25.704065084457397,-8.48,-3.84,-0.41,9.31
25.714166164398193,-7.09,-5.66,0.0,9.07
25.723258018493652,-6.03,-6.19,-0.78,8.67
25.73503804206848,-5.1,-5.12,-1.15,7.31
25.744017124176025,-5.02,-3.46,-1.36,6.24
25.753761053085327,-5.51,-2.35,-2.04,6.32
25.763978004455566,-6.32,-2.0,-3.16,7.34
25.773725032806396,-7.87,-2.12,-4.12,9.13
25.792232036590576,-9.33,-2.28,-4.08,10.43
25.79383897781372,-10.17,-2.44,-2.88,10.84
25.804019927978516,-10.27,-2.67,-1.31,10.69
25.814473152160645,-9.33,-2.47,-0.77,9.68
25.8235080242157,-7.32,-1.42,-1.44,7.59
25.833359241485596,-5.82,0.08,-2.41,6.29
25.84355592727661,-4.65,1.87,-3.08,5.88
25.85337209701538,-3.43,3.25,-3.93,6.14
25.86426591873169,-2.47,4.54,-5.06,7.23
25.873817920684814,-1.89,6.4,-5.8,8.84
25.891520023345947,-1.66,8.53,-6.21,10.68
25.89367389678955,-1.83,10.49,-6.52,12.48
25.9043390750885,-2.11,12.32,-6.94,14.29
25.91427707672119,-1.81,13.54,-7.76,15.71
25.924394130706787,0.31,14.12,-8.68,16.57
25.935802936553955,4.39,14.18,-9.85,17.81
25.94431209564209,9.55,14.3,-11.49,20.68
25.95393204689026,16.08,14.69,-12.65,25.18
25.964334964752197,24.89,14.44,-12.24,31.27
25.974411964416504,33.94,12.18,-10.85,37.65
25.99091601371765,37.64,8.06,-7.77,39.26
25.99378204345703,32.31,2.25,-4.54,32.7
26.003589153289795,24.11,-3.8,-0.14,24.4
26.013766050338745,21.28,-10.85,10.79,26.21
26.023924112319946,24.81,-12.7,5.38,28.38
26.03527593612671,26.49,-4.29,-3.37,27.04
26.044563055038452,26.26,6.9,0.87,27.16
26.054035186767578,23.15,12.25,8.28,27.46
26.064507007598877,7.24,19.6,10.12,23.21
26.07470703125,-34.12,-2.5,-30.72,45.97
26.084618091583252,-51.57,-3.77,-42.1,66.67
26.094922065734863,-15.55,17.98,1.26,23.8
26.104265213012695,5.65,10.82,30.13,32.5
26.11463499069214,7.9,-6.67,26.59,28.52
26.124207973480225,6.4,-14.67,5.68,16.98
26.134655952453613,19.36,-10.35,-2.32,22.07
26.145150184631348,25.6,-5.0,-8.48,27.42
26.154592990875244,18.14,2.12,-8.6,20.18
26.164392948150635,7.54,12.83,0.45,14.88
26.17470908164978,3.52,8.12,-3.67,9.58
26.193768978118896,1.61,1.79,-9.05,9.36
26.195456981658936,-6.27,-0.79,-10.46,12.22
26.204199075698853,-12.31,-1.25,-6.22,13.84
26.215342044830322,-8.1,0.58,2.69,8.55
26.224335193634033,-3.85,-1.14,14.15,14.7
26.23502206802368,-2.09,-4.52,12.79,13.72
26.245469093322754,-1.12,-2.73,3.43,4.52
26.25474500656128,1.9,-1.98,-2.8,3.92
26.26465606689453,3.49,-0.67,-7.38,8.19
26.27492618560791,4.07,4.22,-4.51,7.39
26.294202089309692,4.65,4.2,-2.24,6.65
26.295769214630127,3.87,-0.46,-2.04,4.39
26.305382013320923,0.92,-2.32,0.49,2.54
26.31509017944336,-3.01,-1.28,4.43,5.5
26.324522972106934,-5.29,-0.7,3.32,6.28
26.334469079971313,-4.36,-0.05,-0.93,4.45
26.345614910125732,-1.55,0.56,-1.96,2.56
26.35513210296631,1.14,0.34,-0.71,1.38
26.36491823196411,2.74,-0.21,1.1,2.96
26.375148057937622,1.86,-0.8,1.38,2.45
26.39450693130493,-0.02,-0.66,0.28,0.71
26.396430015563965,-1.28,-0.13,-0.48,1.37
26.40477204322815,-1.91,-0.15,-0.2,1.92
26.41480016708374,-1.41,-0.29,0.6,1.55
26.424756050109863,-0.45,-0.03,0.95,1.05
26.435181140899658,-0.39,0.24,0.52,0.69
26.44553518295288,-0.88,0.29,-0.03,0.92
26.45530605316162,-1.11,0.18,-0.27,1.15
26.465457916259766,-0.86,0.26,-0.33,0.95
26.47549605369568,-0.48,0.42,-0.44,0.77
26.49401617050171,-0.28,0.53,-0.6,0.84
26.495637893676758,-0.37,0.75,-0.59,1.02
26.505006074905396,-0.72,1.01,-0.01,1.24
26.51563310623169,-1.57,0.95,1.15,2.16
26.52543306350708,-2.56,0.66,1.9,3.25
26.536121129989624,-3.1,0.84,1.6,3.58
26.545166969299316,-3.13,1.21,0.47,3.38
26.555854082107544,-2.18,3.54,0.54,4.19
26.565523147583008,-2.32,3.22,1.07,4.11
26.57562017440796,-4.11,0.71,2.71,4.97
26.594022035598755,-4.2,1.61,2.25,5.02
26.595673084259033,-3.95,3.9,0.31,5.55
26.605101108551025,-4.06,4.43,-1.76,6.26
26.616238117218018,-4.18,4.56,-2.48,6.66
26.625225067138672,-3.6,5.73,-2.34,7.16
26.636022090911865,-3.36,8.09,-2.02,8.98
26.64579701423645,-3.76,10.57,-1.78,11.35
26.655821084976196,-4.47,13.57,-1.22,14.33
26.665820121765137,-5.76,15.26,-2.26,16.46
26.675890922546387,-7.46,15.74,-4.72,18.04
26.68694019317627,-9.1,15.24,-7.29,19.18
26.69530701637268,-9.84,13.33,-9.54,19.11
26.705349922180176,-10.27,12.31,-7.57,17.72
26.716029167175293,-10.34,14.11,-2.88,17.72
26.725440979003906,-10.6,15.1,-1.03,18.47
26.735876083374023,-11.93,8.19,-6.36,15.8
26.746769905090332,-12.93,0.56,-9.99,16.34
26.756047248840332,-11.44,0.18,-5.35,12.63
26.76566219329834,-7.77,2.41,0.07,8.13
26.77593994140625,-4.69,1.23,0.7,4.89
26.794841051101685,-3.86,-2.14,-3.14,5.41
26.796507120132446,-5.67,-4.08,-6.74,9.7
26.805342197418213,-8.63,-4.05,-7.53,12.14
26.816565990447998,-12.4,-3.81,-7.1,14.78
26.825676918029785,-15.28,-4.04,-6.01,16.9
26.835634231567383,-15.77,-4.65,-4.4,17.01
26.84641695022583,-13.35,-5.37,-4.38,15.04
26.857607126235962,-9.6,-5.22,-5.48,12.22
26.866148948669434,-7.46,-4.39,-6.31,10.71
26.876154899597168,-6.25,-3.16,-6.18,9.34
26.887526988983154,-5.6,-1.89,-5.75,8.24
26.89663314819336,-5.38,-1.24,-5.91,8.08
26.90572214126587,-5.33,-1.14,-6.27,8.3
26.91632103919983,-5.43,-1.07,-6.27,8.36
26.925911903381348,-5.64,-0.79,-5.72,8.07
26.93685507774353,-5.68,-0.22,-4.57,7.29
26.946742057800293,-5.32,0.44,-3.13,6.18
26.95779323577881,-4.63,1.06,-1.94,5.13
26.96623992919922,-3.78,1.8,-0.99,4.3
26.976439952850342,-3.26,2.8,-0.37,4.31
26.99534320831299,-3.45,4.13,-0.26,5.38
26.996952056884766,-4.09,6.07,-0.06,7.31
27.005897998809814,-4.4,8.82,0.93,9.9
27.016582012176514,-3.45,11.73,1.62,12.33
27.026838064193726,0.77,14.17,0.02,14.19
27.036649227142334,11.06,18.0,-2.22,21.24
27.046844959259033,26.81,20.07,-5.86,33.99
27.05610418319702,41.35,17.23,-7.96,45.49
27.066709995269775,46.1,13.27,-2.17,48.02
27.076343059539795,43.5,6.38,3.2,44.08
27.086793899536133,41.51,-5.05,9.64,42.91
27.096890926361084,40.24,-13.42,23.57,48.52
27.106133937835693,34.34,-12.78,12.59,38.74
27.11672306060791,38.81,-2.84,-4.71,39.19
27.127058029174805,39.93,8.52,-1.24,40.84
27.13666296005249,28.15,15.2,3.08,32.13
27.146379947662354,1.63,6.5,-10.66,12.59
27.15736413002014,-35.62,-13.09,-49.57,62.42
27.167505025863647,-41.02,1.77,-22.23,46.68
27.1771240234375,-17.13,13.41,5.79,22.51
27.18681812286377,-3.72,6.02,38.06,38.71
27.196754932403564,-9.9,-14.47,16.53,24.09
27.207014083862305,-9.29,-16.6,2.15,19.14
27.217637062072754,1.96,-2.55,6.62,7.35
27.22654914855957,13.21,-0.05,0.84,13.23
27.237539052963257,18.37,-2.86,-14.29,23.44
27.247628211975098,16.74,5.8,-14.96,23.18
27.25967502593994,12.0,13.64,-6.42,19.26
27.266712188720703,3.87,6.64,-8.9,11.75
27.27686309814453,-5.49,-2.64,-8.47,10.43
27.288474082946777,-10.56,-7.68,2.12,13.22
27.296968936920166,-13.51,-9.31,33.85,37.61
27.30749011039734,-9.92,-5.87,9.7,15.06
27.317798137664795,-4.13,0.71,-6.34,7.59
27.327125072479248,1.31,1.59,-3.71,4.24
27.336758136749268,5.58,0.06,-5.67,7.95
27.346858024597168,7.35,2.07,-2.58,8.06
27.359920024871826,7.12,2.69,-0.54,7.63
27.367101192474365,4.48,1.0,-0.63,4.63
27.377302169799805,0.46,-0.06,-0.2,0.5
27.389470100402832,-3.01,-0.24,1.2,3.24
27.399007081985474,-4.69,-0.42,2.44,5.3
27.40847110748291,-4.12,-0.53,1.87,4.55
27.418034076690674,-1.84,0.02,0.53,1.91
27.426822185516357,-0.07,0.74,-0.13,0.75
27.437836170196533,1.18,1.1,-0.35,1.65
27.448340892791748,1.71,1.21,-0.38,2.12
27.460240125656128,1.18,1.06,-0.53,1.67
27.467151165008545,-0.11,1.32,-0.1,1.32
27.477559089660645,-1.31,2.98,3.04,4.45
27.489663124084473,-2.45,0.64,1.85,3.13
27.499017238616943,-3.44,-1.9,-1.17,4.1
27.508856058120728,-2.83,0.18,-0.8,2.94
27.517755031585693,-0.89,1.75,-0.19,1.97
27.52769112586975,0.36,0.71,-2.61,2.72
27.53813123703003,0.59,0.94,-2.82,3.03
27.548070907592773,0.26,1.86,-1.4,2.34
27.560229063034058,-0.36,1.9,-1.07,2.21
27.567331075668335,-0.91,1.55,-1.88,2.6
27.577710151672363,-1.55,2.08,-1.71,3.1
27.589739084243774,-2.09,3.02,-0.73,3.74
27.598762035369873,-2.49,3.37,-0.87,4.27
27.60910701751709,-2.84,3.34,-1.78,4.73
27.618300914764404,-3.3,3.41,-2.13,5.2
27.627807140350342,-3.39,3.85,-2.08,5.53
27.638368129730225,-3.3,4.57,-2.27,6.07
27.648332118988037,-3.56,5.9,-2.8,7.43
27.661107063293457,-3.9,7.52,-3.89,9.32
27.667744159698486,-4.73,10.71,-2.49,11.96
27.677982091903687,-5.71,14.46,-1.06,15.58
27.68997621536255,-5.39,13.91,-4.86,15.68
27.699361085891724,-5.29,12.77,-9.12,16.55
27.70940113067627,-7.47,17.82,-11.25,22.35
27.71816110610962,-9.22,22.33,-7.31,25.24
27.7276771068573,-10.11,13.84,1.36,17.19
27.738686084747314,-12.47,6.55,0.99,14.12
27.748512029647827,-14.78,3.78,3.77,15.71
27.758190155029297,-15.95,3.9,6.39,17.61
27.767954111099243,-15.24,3.81,3.46,16.08
27.778066158294678,-14.29,4.96,1.98,15.25
27.789474964141846,-11.43,5.75,5.21,13.81
27.79945421218872,-7.86,4.68,5.45,10.64
27.80771803855896,-4.21,2.65,1.52,5.2
27.817845106124878,-1.83,0.76,-1.5,2.48
27.827855110168457,-1.62,-0.86,-2.43,3.04
27.83794116973877,-2.63,-1.22,-2.18,3.62
27.847905158996582,-4.55,-0.77,-0.83,4.68
27.857800006866455,-6.92,-0.65,0.53,6.97
27.86791706085205,-8.84,-1.22,2.23,9.19
27.878547191619873,-10.18,-2.81,3.8,11.22
27.88994812965393,-11.43,-5.03,3.97,13.1
27.89983320236206,-12.57,-6.86,2.62,14.55
27.909987926483154,-13.18,-7.18,1.66,15.1
27.91813898086548,-12.57,-5.56,2.15,13.91
27.928007125854492,-10.84,-3.65,2.82,11.78
27.9380521774292,-8.67,-2.86,2.48,9.46
27.94862699508667,-6.63,-2.97,1.65,7.44
27.958434104919434,-5.12,-3.03,1.25,6.07
27.968199014663696,-4.33,-2.61,1.48,5.26
27.97854518890381,-4.12,-1.96,1.89,4.93
27.98982000350952,-4.35,-1.36,2.11,5.02
28.00019407272339,-4.8,-0.83,2.11,5.3
28.00825595855713,-5.32,-0.15,2.37,5.82
28.018435955047607,-5.77,0.82,2.79,6.46
28.02823805809021,-5.91,2.25,3.59,7.27
28.039331912994385,-5.5,4.29,4.88,8.51
28.049967050552368,-4.42,6.71,6.43,10.29
28.05912494659424,-2.57,9.21,7.98,12.45
28.069241046905518,0.31,11.62,8.28,14.27
28.078963041305542,4.14,14.1,6.51,16.07
28.090943098068237,7.09,17.35,2.85,18.95
28.100658893585205,8.26,22.26,2.0,23.82
28.109065055847168,9.59,20.95,4.28,23.43
28.11918020248413,11.97,15.69,7.07,20.96
28.12951111793518,14.46,11.73,8.47,20.45
28.139517068862915,19.21,6.94,9.32,22.45
28.14900302886963,28.31,0.42,15.65,32.35
28.159139156341553,35.77,-6.36,12.43,38.39
28.16978907585144,38.03,-5.57,7.62,39.18
28.17899513244629,35.96,-0.8,5.47,36.38
28.189191102981567,31.29,0.72,1.01,31.31
28.200910091400146,25.76,1.63,0.16,25.81
28.20851993560791,21.08,5.13,2.46,21.83
28.21875810623169,8.77,13.98,7.83,18.26
28.22879910469055,-24.53,3.72,-29.02,38.18
28.239174127578735,-42.04,7.09,-39.83,58.34
28.248707056045532,-24.32,14.67,-2.67,28.52
28.259368896484375,-3.19,2.37,28.54,28.81
28.269100189208984,2.72,-2.24,26.85,27.08
28.279250144958496,10.26,-6.4,7.71,14.34
28.290709972381592,29.64,-10.32,-9.68,32.84
28.301449060440063,35.38,-4.98,-7.24,36.45
28.308846950531006,19.26,4.76,11.84,23.1
28.31904911994934,4.31,4.11,4.41,7.41
28.328992128372192,-2.03,-1.23,-8.69,9.0
28.339354991912842,-7.86,0.14,-5.65,9.68
28.348952054977417,-19.33,0.43,-3.26,19.6
28.359632968902588,-20.51,-0.13,1.66,20.57
28.369375228881836,-5.49,-0.75,4.1,6.89
28.37962508201599,6.06,-2.4,-0.99,6.59
28.390968084335327,11.58,-1.11,-1.79,11.76
28.401865005493164,11.09,1.41,0.97,11.22
28.408998012542725,5.29,1.57,0.83,5.58
28.420204162597656,-0.59,-0.06,1.27,1.4
28.429192066192627,-4.56,-1.46,1.16,4.92
28.440054893493652,-6.57,-1.21,1.14,6.77
28.451112031936646,-4.76,-0.51,0.44,4.8
28.459482192993164,-0.44,0.08,-0.43,0.62
28.469786167144775,2.05,0.52,-0.34,2.14
28.479756116867065,2.51,0.83,-0.85,2.77
28.491594076156616,2.45,1.02,-1.0,2.83
28.502485036849976,1.7,1.07,-0.41,2.05
28.5092191696167,0.15,0.5,0.42,0.67
28.52043390274048,-1.27,-0.39,0.84,1.57
28.529292106628418,-1.91,-0.7,0.54,2.1
28.54042410850525,-1.51,-0.36,0.0,1.55
28.550180912017822,-0.52,0.12,-0.14,0.55
28.559709072113037,0.45,0.4,-0.06,0.6
28.570899963378906,1.0,0.51,-0.01,1.12
28.579933166503906,0.75,0.49,0.05,0.89
28.591247081756592,-0.05,0.23,0.04,0.23
28.60218906402588,-0.67,-0.16,-0.04,0.69
28.609270095825195,-0.73,-0.2,-0.04,0.75
28.619564056396484,-0.37,0.18,0.09,0.42
28.62954092025757,-0.06,0.62,0.11,0.63
28.640652179718018,-0.04,0.85,-0.03,0.85
28.649636030197144,-0.24,0.83,-0.22,0.89
28.66056203842163,-0.53,0.72,-0.26,0.93
28.66986107826233,-0.7,0.8,-0.01,1.06
28.68004322052002,-0.7,0.95,0.08,1.18
28.692034244537354,-0.81,1.05,-0.27,1.35
28.70307493209839,-1.2,1.19,-0.57,1.78
28.70971703529358,-1.46,1.14,-0.91,2.06
28.719851970672607,-1.24,1.12,-1.15,2.02
28.729725122451782,-0.91,1.35,-1.07,1.94
28.74086618423462,-0.98,1.62,-1.11,2.19
28.750710010528564,-1.39,2.21,-0.8,2.73
28.760262966156006,-2.0,3.29,-0.04,3.85
28.770211219787598,-2.76,4.81,0.54,5.57
28.780278205871582,-3.7,6.86,0.51,7.81
28.792052030563354,-4.66,8.72,0.98,9.93
28.80379605293274,-5.67,10.76,1.32,12.23
28.81068515777588,-6.9,11.08,-0.44,13.06
28.82059097290039,-8.23,10.67,-3.16,13.84
28.83010506629944,-9.28,10.97,-5.08,15.24
28.84064292907715,-9.58,12.6,-3.53,16.21
28.8507661819458,-6.89,14.68,-0.66,16.22
28.861138105392456,-3.5,12.74,-0.2,13.21
28.870103120803833,-3.47,10.58,0.65,11.15
28.88222312927246,-4.86,12.46,5.47,14.44
28.89274501800537,-8.36,9.48,4.48,13.41
28.904035091400146,-12.42,3.92,-0.25,13.02
28.91014003753662,-13.91,2.61,-0.35,14.15
28.920313119888306,-12.16,4.33,2.59,13.16
28.930068016052246,-9.24,4.52,3.25,10.78
28.94087791442871,-6.63,2.47,1.18,7.17
28.950304985046387,-5.39,0.47,-1.48,5.6
28.961214065551758,-5.58,-0.06,-1.95,5.91
28.97093105316162,-7.04,-0.04,-1.22,7.14
28.98267102241516,-9.36,-0.81,-1.28,9.48
28.992218017578125,-11.37,-2.18,-1.85,11.72
29.004178047180176,-12.38,-3.43,-1.52,12.93
29.010343074798584,-12.75,-4.65,0.74,13.59
29.020539045333862,-12.57,-5.88,2.8,14.15
29.03140115737915,-11.39,-6.26,1.88,13.13
29.041472911834717,-9.65,-5.2,-0.19,10.96
29.050867080688477,-8.18,-3.57,-1.56,9.06
29.061262130737305,-7.6,-2.35,-2.66,8.38
29.070791244506836,-7.86,-1.42,-3.54,8.73
29.082755088806152,-8.18,-0.63,-4.1,9.17
29.093215942382812,-7.96,0.02,-4.29,9.04
29.104857921600342,-7.1,0.48,-4.12,8.22
29.11055898666382,-6.0,0.83,-3.83,7.16
29.120666027069092,-4.96,1.39,-3.67,6.32
29.131720066070557,-3.99,2.25,-3.84,5.97
29.140703201293945,-2.95,3.33,-4.26,6.15
29.150710105895996,-1.88,4.53,-4.82,6.87
29.160670042037964,-0.8,5.84,-5.48,8.04
29.172662019729614,0.15,7.26,-6.14,9.5
29.18182897567749,0.96,8.71,-6.62,10.98
29.19192600250244,1.86,9.96,-7.05,12.34
29.204827070236206,2.87,10.56,-8.39,13.78
29.211309909820557,3.57,11.0,-9.86,15.19
29.22159194946289,3.74,10.98,-11.37,16.24
29.232147216796875,4.96,10.15,-12.57,16.9
29.240915060043335,8.39,8.61,-13.34,17.95
29.250922203063965,13.18,7.09,-14.48,20.82
29.26087522506714,18.84,6.84,-14.66,24.83
29.27204990386963,24.93,6.89,-14.11,29.46
29.284337043762207,29.14,5.67,-13.69,32.69
29.291592121124268,28.95,2.92,-12.89,31.82
29.304152011871338,25.79,-1.36,-11.12,28.11
29.312209129333496,22.79,-5.79,-8.02,24.84
29.320934057235718,20.7,-6.43,-4.22,22.08
29.33246612548828,18.86,-3.88,-2.97,19.48
29.341145992279053,17.25,-2.73,-4.27,17.97
29.351201057434082,14.43,7.36,3.55,16.58
29.361217975616455,-9.58,23.19,2.5,25.21
29.372104167938232,-59.96,-4.4,-38.33,71.3
29.384210109710693,-45.78,9.14,-21.56,51.42
29.3925142288208,-1.23,23.38,27.29,35.95
29.40540313720703,10.53,-2.1,32.6,34.32
29.411086082458496,10.97,-20.4,7.62,24.38
29.421329975128174,26.36,-19.05,-5.19,32.93
29.432852029800415,28.34,-5.92,-5.65,29.49
29.4423189163208,12.72,3.15,-4.02,13.7
29.45209312438965,2.16,12.4,-0.87,12.61
29.461859226226807,4.42,9.85,-1.89,10.96
29.47194504737854,-0.71,-1.88,-14.66,14.79
29.484683990478516,-10.85,-1.38,-13.25,17.18
29.493649005889893,-10.83,7.22,1.42,13.09
29.506163120269775,-4.94,0.51,5.7,7.56
29.51144790649414,1.58,-7.19,5.68,9.29
29.52155113220215,6.62,-3.16,6.65,9.9
29.53330111503601,6.53,0.28,2.7,7.07
29.54156494140625,3.44,0.68,-3.66,5.06
29.55211901664734,0.17,2.0,-5.83,6.16
29.561540126800537,-2.69,1.91,-4.12,5.27
29.573764085769653,-3.24,0.04,-0.7,3.31
29.58472204208374,-1.38,-1.02,2.69,3.19
29.593653202056885,0.62,-1.22,3.58,3.83
