time,ax,ay,az,atotal
0.012323141098022461,-1.12,0.84,0.92,1.67
0.018221139907836914,-0.6,1.07,1.28,1.77
0.020334243774414062,-0.1,0.94,0.8,1.23
0.030393123626708984,0.63,1.14,-0.28,1.33
0.041683197021484375,1.78,2.29,-1.33,3.19
0.05076718330383301,0.94,1.63,-1.77,2.58
0.06066703796386719,-0.09,0.37,-1.03,1.09
0.07174515724182129,-0.31,0.7,-0.16,0.78
0.08101415634155273,-0.3,0.68,1.19,1.4
0.0921781063079834,-0.35,0.65,1.99,2.12
0.10109901428222656,-0.14,0.6,2.03,2.12
0.11133718490600586,0.35,0.59,1.8,1.92
0.1213381290435791,0.92,0.65,0.92,1.45
0.1314072608947754,1.25,0.64,0.25,1.42
0.14254522323608398,1.22,0.64,-0.27,1.4
0.1516261100769043,0.69,0.69,-0.88,1.31
0.16169404983520508,0.06,0.65,-1.28,1.43
0.17290830612182617,-0.54,0.36,-1.21,1.37
0.18187522888183594,-0.65,-0.56,-0.35,0.92
0.1933431625366211,-0.15,-0.99,1.4,1.72
0.2021040916442871,0.37,-0.82,2.67,2.81
0.21210217475891113,0.39,-1.23,3.03,3.29
0.22215008735656738,0.37,-1.44,3.57,3.86
0.2325901985168457,0.04,-1.02,2.78,2.96
0.24361705780029297,-0.57,-0.84,2.18,2.4
0.25248098373413086,-0.56,-0.93,0.84,1.37
0.2623872756958008,0.03,-0.87,-1.6,1.82
0.27388906478881836,0.67,-0.53,-4.05,4.13
0.2886042594909668,1.45,-0.29,-4.34,4.58
0.29395103454589844,2.01,-0.14,-3.4,3.95
0.30296802520751953,2.34,-0.15,-1.3,2.68
0.3128700256347656,2.22,-0.15,0.38,2.25
0.32296228408813477,1.44,-0.07,1.48,2.06
0.3331589698791504,0.28,-0.07,1.13,1.16
0.3445441722869873,-0.53,-0.28,0.11,0.6
0.3533661365509033,-1.2,-0.47,-0.67,1.45
0.36336803436279297,-1.37,-0.63,-0.59,1.61
0.3735532760620117,-0.77,-0.83,-0.01,1.13
0.3890390396118164,0.17,-0.78,0.8,1.13
0.39478206634521484,0.7,-0.42,0.8,1.14
0.4037289619445801,0.31,-0.05,-0.02,0.31
0.41362524032592773,0.0,0.14,-1.3,1.3
0.4237833023071289,2.76,1.24,-1.94,3.59
0.4339790344238281,4.74,2.71,-0.56,5.48
0.44518327713012695,1.94,1.11,-1.2,2.53
0.45409417152404785,-0.23,-0.7,-0.2,0.76
0.46402597427368164,-1.24,-1.72,0.94,2.31
0.47428011894226074,-1.53,-1.92,1.21,2.73
0.4891951084136963,-0.81,-1.62,1.7,2.48
0.4956061840057373,-0.14,-0.9,2.12,2.3
0.5044891834259033,-0.05,-0.61,2.51,2.58
0.5145082473754883,-0.12,-0.63,1.13,1.29
0.5246140956878662,0.25,-0.19,-0.94,0.99
0.5347840785980225,1.06,0.26,-2.29,2.53
0.5460851192474365,1.57,0.15,-2.2,2.7
0.5549521446228027,1.41,0.3,-2.58,2.95
0.5648601055145264,0.52,-0.35,-2.8,2.86
0.5750441551208496,-0.7,-1.13,-2.23,2.59
0.5884079933166504,-2.03,-1.58,-1.98,3.24
0.5962891578674316,-2.04,-1.88,-1.36,3.08
0.6053051948547363,-1.43,-1.69,-1.92,2.93
0.6152629852294922,-0.3,-0.99,-2.9,3.07
0.6253631114959717,0.78,-0.71,-3.59,3.74
0.6355271339416504,1.73,-0.6,-3.8,4.21
0.6468691825866699,2.3,-0.48,-3.61,4.3
0.6557250022888184,1.99,-1.04,-2.73,3.53
0.6660270690917969,1.94,-0.92,-2.08,2.98
0.6758060455322266,2.98,0.32,-0.03,2.99
0.6884081363677979,-0.24,-0.21,0.39,0.5
0.6971721649169922,-0.01,-0.32,-0.39,0.5
0.7060401439666748,0.49,0.05,1.05,1.15
0.7163629531860352,0.09,-0.37,1.27,1.32
0.7262670993804932,-0.43,-0.79,1.14,1.45
0.7363190650939941,-0.6,-0.73,0.75,1.2
0.7476770877838135,-0.69,-1.43,0.86,1.8
0.7565271854400635,-1.4,-2.79,1.07,3.29
0.7677860260009766,-2.01,-3.06,1.04,3.8
0.7767541408538818,-2.23,-3.13,0.77,3.91
0.7893540859222412,-2.41,-2.79,0.13,3.68
0.798058032989502,-2.58,-2.53,-0.66,3.67
0.8067831993103027,-2.58,-2.13,-1.2,3.55
0.816864013671875,-1.28,-1.2,-1.26,2.16
0.8271350860595703,3.55,2.12,0.1,4.13
0.8373003005981445,3.07,3.09,-1.05,4.48
0.8488280773162842,1.38,2.05,-2.64,3.61
0.8574461936950684,-0.15,-0.06,-1.87,1.87
0.8684539794921875,-1.95,-2.26,-1.32,3.26
0.8775701522827148,-1.87,-3.0,0.16,3.53
0.8894641399383545,-2.52,-2.14,0.23,3.31
0.8994569778442383,-3.69,-1.9,0.28,4.15
0.9076852798461914,-4.39,-2.85,0.07,5.23
0.9178471565246582,-4.21,-2.88,-0.77,5.15
0.927886962890625,-3.79,-2.18,-1.37,4.58
0.9381632804870605,-3.4,-1.92,-1.71,4.26
0.9496612548828125,-3.16,-1.84,-1.53,3.96
0.9580841064453125,-2.27,-1.04,0.03,2.49
0.9693071842193604,-1.65,-0.19,1.82,2.46
0.9782872200012207,-0.91,0.42,2.66,2.84
0.9887971878051758,-0.17,0.44,2.0,2.05
1.0000519752502441,0.02,0.12,1.16,1.16
1.0086150169372559,0.03,0.38,0.97,1.04
1.0185632705688477,0.24,1.46,0.45,1.54
1.0288000106811523,1.27,3.12,-0.43,3.39
1.0386390686035156,2.2,4.2,-1.22,4.89
1.0506172180175781,1.37,2.84,-1.35,3.43
1.0588970184326172,-1.14,-0.24,-0.96,1.5
1.0699331760406494,-1.46,-0.06,0.16,1.46
1.0790061950683594,-1.42,0.93,1.58,2.31
1.0889360904693604,-1.85,1.0,2.46,3.23
1.1007881164550781,-1.08,0.36,2.65,2.88
1.1092381477355957,0.0,0.25,2.27,2.28
1.1194629669189453,0.85,0.78,2.47,2.72
1.1294541358947754,1.19,0.65,3.23,3.5
1.1395251750946045,1.19,0.4,3.2,3.43
1.1510930061340332,0.7,0.54,3.18,3.3
1.1596851348876953,-0.02,0.22,3.05,3.05
1.173220157623291,-0.64,-0.12,2.61,2.69
1.1797232627868652,-0.73,-0.24,2.73,2.83
1.1899631023406982,-0.06,-0.42,2.63,2.66
1.201179027557373,0.33,-0.34,2.08,2.13
1.2100162506103516,0.74,0.1,2.25,2.37
1.2202861309051514,1.13,0.62,2.31,2.64
1.230283260345459,1.67,1.02,2.18,2.92
1.2403621673583984,1.87,0.83,2.43,3.17
1.251798152923584,1.51,0.08,2.6,3.0
1.2605621814727783,1.34,-0.56,2.1,2.55
1.2747271060943604,0.95,-0.71,1.95,2.28
1.2805700302124023,0.36,-0.45,1.22,1.34
1.290804147720337,-0.08,-0.28,-0.5,0.57
1.302056074142456,-0.19,-0.47,-1.91,1.97
1.3110170364379883,-0.37,-0.66,-2.25,2.37
1.321122169494629,-0.4,-0.74,-2.23,2.38
1.3311042785644531,-0.59,-0.66,-1.64,1.86
1.3411822319030762,-0.59,-0.21,-0.49,0.79
1.3529810905456543,-0.53,0.07,0.35,0.63
1.3614211082458496,-0.22,0.1,0.26,0.35
1.3713901042938232,0.46,-0.23,-0.58,0.77
1.3815102577209473,0.9,-1.51,-0.71,1.89
1.3915891647338867,1.14,-2.43,0.41,2.71
1.402975082397461,1.74,-2.09,1.94,3.34
1.4116840362548828,1.8,-2.07,3.43,4.39
1.4218082427978516,1.7,-2.4,3.62,4.66
1.4318432807922363,1.79,-2.23,3.11,4.22
1.4421463012695312,2.13,-1.73,2.7,3.84
1.4534602165222168,1.98,-1.42,1.48,2.85
1.4621491432189941,1.55,-1.39,-0.1,2.08
1.4722011089324951,1.12,-1.49,-0.75,2.0
1.4885802268981934,0.04,-2.27,-1.78,2.88
1.4923062324523926,0.99,-1.91,-1.55,2.65
1.5036821365356445,0.49,-0.7,-0.51,0.99
1.5124990940093994,-0.42,0.91,0.03,1.0
1.5226540565490723,-0.58,3.1,3.25,4.52
1.53314208984375,-0.73,5.13,6.74,8.5
1.542722225189209,-0.24,5.65,6.74,8.79
1.554117202758789,0.61,4.8,2.84,5.61
1.564229965209961,0.58,2.92,-1.97,3.56
1.5768871307373047,0.1,1.45,-4.89,5.1
1.5831310749053955,-0.47,0.92,-6.65,6.72
1.5931730270385742,-0.72,0.98,-6.1,6.22
1.6046380996704102,-0.62,1.33,-3.4,3.7
1.6133990287780762,-0.66,1.59,-1.08,2.03
1.6234591007232666,-0.38,1.54,0.26,1.6
1.6334452629089355,-0.03,1.51,0.94,1.77
1.6436741352081299,0.02,1.36,0.51,1.45
1.6550970077514648,0.34,0.9,-0.91,1.32
1.664985179901123,0.52,0.36,-1.21,1.36
1.6777560710906982,0.55,-0.29,-0.68,0.92
1.6838171482086182,0.63,-1.04,-0.16,1.22
1.6939411163330078,0.72,-1.61,0.38,1.8
1.705320119857788,0.94,-1.95,0.38,2.19
1.7140851020812988,0.79,-1.93,-0.2,2.09
1.724195957183838,-0.26,-1.4,0.0,1.42
1.7343192100524902,-1.38,-0.8,0.43,1.65
1.744354248046875,-1.5,-0.21,0.14,1.52
1.755873203277588,-1.08,0.52,1.23,1.71
1.7729029655456543,-0.74,0.65,2.03,2.25
1.7795171737670898,-0.98,-0.13,1.51,1.8
1.7848429679870605,-1.08,-0.92,0.62,1.54
1.7948989868164062,-0.78,-1.03,0.58,1.41
1.8062701225280762,-0.55,-1.19,0.85,1.56
1.8150262832641602,-0.69,-1.28,0.83,1.67
1.8251762390136719,-0.39,-0.45,0.53,0.79
1.835191249847412,0.05,0.18,0.19,0.26
1.845386028289795,0.08,0.05,0.06,0.11
1.8568191528320312,0.28,0.11,1.57,1.59
1.8733620643615723,0.45,0.46,1.98,2.08
1.8796660900115967,0.53,0.25,1.06,1.21
1.8856329917907715,0.85,0.38,0.2,0.95
1.8955411911010742,0.83,0.68,-0.64,1.24
1.9070372581481934,0.58,0.65,-0.79,1.17
1.916290283203125,0.49,0.59,-0.88,1.16
1.9258990287780762,0.42,0.75,-1.57,1.78
1.935941219329834,0.4,0.87,-1.88,2.1
1.9460129737854004,0.38,0.67,-1.47,1.65
1.957468032836914,0.67,0.46,-1.04,1.31
1.9725532531738281,0.84,0.3,-0.49,1.01
1.9791259765625,0.4,0.32,0.81,0.95
1.9863381385803223,-0.25,0.73,1.55,1.73
1.9964962005615234,-0.79,0.84,1.57,1.94
2.007737159729004,-0.98,0.76,1.57,2.0
2.0164811611175537,-0.94,0.54,1.0,1.47
2.02659010887146,-0.78,0.14,-0.17,0.81
2.03669810295105,-0.64,-0.04,-0.97,1.16
2.0468649864196777,-0.31,-0.05,-1.07,1.11
2.0582642555236816,-0.04,0.07,-0.94,0.94
2.0725181102752686,-0.09,0.32,-0.65,0.73
2.078817129135132,-0.34,0.54,-0.47,0.79
2.0871572494506836,-0.23,0.69,-0.1,0.73
2.097172260284424,-0.02,0.5,0.27,0.56
2.1085710525512695,0.23,0.26,0.22,0.41
2.1173110008239746,0.38,-0.29,-0.2,0.51
2.1274220943450928,0.41,-0.87,-0.63,1.14
2.137576103210449,0.51,-0.73,-0.67,1.11
2.147653102874756,0.31,-0.42,-0.5,0.72
2.1589231491088867,0.15,-0.25,-0.47,0.55
2.172323226928711,0.15,-0.19,-0.32,0.4
2.1785149574279785,0.14,-0.17,-0.01,0.22
2.187955141067505,-0.07,-0.14,0.3,0.33
2.1980161666870117,-0.41,-0.12,0.64,0.76
2.20959210395813,-0.43,-0.08,0.51,0.67
2.218111991882324,-0.32,-0.26,-0.09,0.42
2.228339195251465,-0.42,-0.51,-0.25,0.7
2.2384021282196045,-0.36,-0.31,-0.32,0.57
2.2485201358795166,-0.04,0.05,-0.67,0.67
2.2599260807037354,0.05,0.12,-0.87,0.87
2.2723240852355957,0.16,0.17,-0.65,0.69
2.2786850929260254,0.24,0.44,-0.19,0.53
2.289015293121338,0.04,0.39,0.24,0.45
2.2989020347595215,0.08,0.15,0.44,0.47
2.310159206390381,0.26,-0.17,0.33,0.45
2.3189830780029297,0.33,-0.51,0.22,0.64
2.3290562629699707,0.44,-0.43,0.0,0.61
2.3391990661621094,0.57,0.02,-0.24,0.61
2.3496410846710205,0.24,0.24,0.0,0.33
2.3621931076049805,0.01,0.27,-0.41,0.49
2.3726682662963867,0.33,0.31,-0.94,1.04
2.3793771266937256,0.59,-0.15,-0.37,0.71
2.389583110809326,0.85,-0.57,0.52,1.14
2.399944305419922,0.94,-0.61,0.78,1.36
2.4111311435699463,0.56,-0.42,0.76,1.03
2.419970989227295,0.21,-0.01,0.99,1.01
2.4298300743103027,0.17,0.39,0.76,0.87
2.4400739669799805,0.09,0.23,0.64,0.68
2.4500012397766113,-0.02,-0.16,0.56,0.58
2.46290922164917,-0.15,-0.47,0.17,0.52
2.4726552963256836,-0.37,-0.5,-0.23,0.66
2.4802651405334473,-0.49,-0.18,-0.03,0.52
2.490478992462158,-0.77,-0.01,0.55,0.94
2.5003151893615723,-0.75,0.15,0.78,1.09
2.5118091106414795,-0.62,0.32,0.48,0.84
2.5205960273742676,-0.35,0.73,0.25,0.84
2.5307440757751465,-0.09,1.2,0.33,1.24
2.540778160095215,-0.04,1.11,0.24,1.13
2.5509352684020996,-0.37,0.16,-0.74,0.84
2.563443183898926,-0.1,-0.17,-1.47,1.48
2.5726420879364014,0.06,-0.02,-1.13,1.13
2.580993175506592,-0.13,-0.03,-0.75,0.76
2.5912232398986816,-0.24,0.16,-0.52,0.59
2.6012630462646484,-0.04,0.28,-0.4,0.48
2.612621307373047,0.27,0.17,-0.09,0.33
2.6215391159057617,0.55,0.15,0.7,0.9
2.6315951347351074,0.42,-0.11,1.28,1.35
2.6415929794311523,0.34,-0.53,1.15,1.31
2.65181827545166,0.22,-1.04,1.0,1.45
2.6643011569976807,0.42,-1.32,0.32,1.42
2.6730971336364746,-0.1,-2.27,-0.03,2.27
2.681875228881836,0.12,-2.11,0.78,2.25
2.6920642852783203,-0.68,-1.14,0.93,1.62
2.7020349502563477,-0.12,0.38,0.71,0.81
2.7133491039276123,1.08,0.87,0.46,1.46
2.7222900390625,0.16,0.43,0.16,0.48
2.7327232360839844,-0.44,0.44,0.13,0.63
2.74241304397583,-0.14,0.63,0.42,0.77
2.7525672912597656,-0.05,0.39,0.29,0.48
2.7639451026916504,-0.13,0.04,-0.03,0.13
2.772824287414551,-0.33,0.09,-0.12,0.36
2.7829842567443848,-1.04,0.44,-0.04,1.12
2.792840003967285,-0.65,1.1,-0.01,1.27
2.802952289581299,0.32,1.7,-0.95,1.97
2.8142452239990234,0.92,1.84,-1.87,2.78
2.823031187057495,1.06,1.3,-2.21,2.77
2.833071231842041,1.26,0.51,-1.91,2.34
2.8432669639587402,1.56,-0.26,-1.33,2.06
2.8534059524536133,1.28,-0.96,-0.28,1.62
2.8647000789642334,0.81,-1.12,0.21,1.39
2.873471260070801,0.34,-0.51,0.17,0.63
2.8833911418914795,0.06,0.26,0.06,0.27
2.8935890197753906,-0.1,0.35,0.11,0.38
2.9037511348724365,-0.15,-0.12,0.49,0.52
2.914961099624634,0.28,-0.82,1.03,1.34
2.924015998840332,0.51,-1.44,0.93,1.78
2.934077262878418,0.17,-1.71,1.29,2.14
2.944188117980957,-0.48,-1.69,2.57,3.11
2.9542601108551025,-1.76,-1.5,2.45,3.36
2.965610980987549,-1.74,-0.09,1.37,2.21
2.974262237548828,-1.1,0.73,0.82,1.55
2.9842240810394287,-0.95,0.29,0.21,1.01
2.994530200958252,-0.56,-0.46,-0.37,0.81
3.004563093185425,-0.03,-0.8,-0.64,1.02
3.0176682472229004,0.59,-1.07,-0.32,1.26
3.024661064147949,0.46,-1.58,0.53,1.72
3.0348172187805176,0.14,-1.52,0.97,1.8
3.044840097427368,-1.06,-1.83,1.69,2.7
3.0551061630249023,-1.34,-1.51,2.31,3.06
3.072848081588745,-0.99,-1.38,1.87,2.52
3.075118064880371,-0.47,-1.61,1.06,1.98
3.0851340293884277,-0.62,-2.15,-0.23,2.24
3.0953750610351562,0.18,-0.97,-1.33,1.65
3.105401039123535,1.26,-0.59,-1.01,1.71
3.1172680854797363,0.43,-0.83,-1.09,1.43
3.1255812644958496,0.05,-0.02,-1.27,1.27
3.1356472969055176,0.12,1.67,-1.13,2.01
3.145677089691162,0.32,2.9,-0.63,2.98
3.1572091579437256,-0.14,2.48,-0.2,2.49
3.1735429763793945,0.01,1.45,-0.71,1.61
3.175922155380249,1.33,0.78,-0.77,1.72
3.185944080352783,2.39,0.38,-0.45,2.46
3.1961612701416016,3.01,0.56,-0.85,3.17
3.206252098083496,2.75,0.51,-1.3,3.08
3.2178561687469482,1.91,0.78,-1.49,2.54
3.2264111042022705,1.42,0.87,-1.64,2.33
3.236495018005371,0.6,0.79,-1.67,1.94
3.246417999267578,-0.44,0.95,-1.17,1.57
3.2579092979431152,-0.57,1.74,-0.31,1.85
3.273759126663208,-0.36,1.02,-0.34,1.13
3.2767891883850098,-0.49,-0.04,-0.25,0.55
3.286821126937866,-0.42,-0.9,-0.67,1.19
3.2968921661376953,-0.39,-0.8,-1.27,1.55
3.3069450855255127,-0.47,-0.13,-1.67,1.73
3.318143129348755,0.32,0.68,-2.16,2.28
3.3271422386169434,0.54,0.47,-2.52,2.61
3.3372671604156494,0.92,0.2,-2.49,2.66
3.3472299575805664,0.45,-0.01,-3.04,3.07
3.358588218688965,0.59,0.76,-3.75,3.87
3.3734512329101562,0.53,1.19,-4.12,4.32
3.377638101577759,0.2,0.79,-3.61,3.7
3.387571096420288,0.29,-0.39,-2.67,2.71
3.397792100906372,-0.78,-1.38,-0.98,1.86
3.4078280925750732,-3.45,-2.23,-0.41,4.12
3.4192490577697754,-4.84,-2.78,-0.71,5.62
3.427999973297119,-4.86,-1.86,0.86,5.27
3.4381022453308105,-4.05,-2.53,0.66,4.82
3.448153018951416,-3.58,-4.52,-1.71,6.01
3.4594051837921143,-3.46,-3.98,-4.52,6.94
3.473790168762207,-0.43,-1.71,-4.77,5.08
3.4784951210021973,1.91,-0.14,-1.59,2.48
3.488413095474243,3.38,1.22,1.89,4.06
3.4985132217407227,3.13,1.7,3.99,5.34
3.5086991786956787,3.57,1.05,4.74,6.02
3.520087242126465,4.24,0.75,4.07,5.92
3.528848171234131,4.97,0.7,6.26,8.02
3.538975238800049,6.12,1.38,6.2,8.82
3.5488271713256836,3.67,0.31,4.19,5.57
3.559173107147217,0.9,-1.0,1.53,2.03
3.5745291709899902,-0.13,-2.05,-1.11,2.33
3.579071044921875,-0.45,-1.93,-0.18,1.98
3.589189052581787,-0.8,-1.54,0.29,1.75
3.5997490882873535,-1.03,-0.74,-0.82,1.51
3.6094412803649902,-2.08,-1.86,0.22,2.79
3.6210081577301025,-2.01,-1.96,-0.88,2.94
3.6296730041503906,-1.2,2.4,1.07,2.88
3.6399569511413574,-0.68,2.41,3.38,4.2
3.650163173675537,0.6,1.24,0.59,1.49
3.659914970397949,0.82,0.44,0.12,0.93
3.674628257751465,0.82,0.92,0.25,1.25
3.680061101913452,1.01,0.83,-0.4,1.36
3.6900782585144043,0.7,0.06,-1.63,1.77
3.7000491619110107,-0.89,0.01,-2.06,2.24
3.710235118865967,-2.64,1.73,1.8,3.63
3.721987247467041,-1.7,3.75,2.73,4.94
3.7304162979125977,-0.18,1.28,0.15,1.3
3.7405831813812256,1.33,0.06,-0.77,1.53
3.75057315826416,2.5,0.99,-0.64,2.76
3.7607312202453613,3.07,1.23,-1.84,3.78
3.7749431133270264,0.0,1.13,-1.07,1.55
3.7808361053466797,0.08,-0.25,-1.53,1.55
3.7910079956054688,-0.73,-0.42,-0.41,0.93
3.8010292053222656,-1.4,1.81,1.9,2.97
3.8110432624816895,-0.63,1.08,0.12,1.25
3.822693109512329,0.48,-1.35,-1.5,2.07
3.8312902450561523,0.04,-2.18,-1.34,2.55
3.8413851261138916,-0.45,-1.5,-1.24,1.99
3.8515381813049316,-1.21,-1.63,-1.03,2.27
3.8616600036621094,-0.97,-1.86,-0.48,2.15
3.8748393058776855,0.28,0.64,1.7,1.83
3.8816471099853516,0.73,2.19,3.14,3.89
3.8916780948638916,-0.06,1.46,1.26,1.92
3.9018681049346924,-0.07,0.11,-0.05,0.13
3.911903142929077,0.23,-0.44,0.14,0.51
3.9234752655029297,0.83,-0.62,0.27,1.07
3.93204402923584,0.14,-0.67,0.19,0.71
3.942392110824585,-0.52,-1.05,-0.74,1.38
3.953707218170166,-1.29,-1.09,-0.74,1.84
3.9624431133270264,-1.62,-0.28,1.03,1.94
3.9741382598876953,-0.66,0.0,1.84,1.95
3.9829421043395996,0.42,-0.92,0.3,1.05
3.9924991130828857,0.16,-0.87,-0.07,0.88
4.00256609916687,-0.56,-0.59,-0.1,0.81
4.012650966644287,-0.56,-0.56,-0.24,0.82
4.024465084075928,-0.25,0.14,-0.09,0.3
4.033156156539917,0.47,0.48,-0.2,0.7
4.042859077453613,0.47,0.44,0.79,1.01
4.054209232330322,0.45,0.74,1.41,1.65
4.063151121139526,0.56,-0.15,-0.09,0.58
4.0746259689331055,-0.18,-0.76,-0.86,1.16
4.083380222320557,-0.64,-0.82,-0.84,1.33
4.093326091766357,-0.36,-1.02,-0.76,1.32
4.103482246398926,0.1,-0.96,-0.7,1.19
4.113408088684082,0.15,-0.6,-0.57,0.84
4.124934196472168,0.35,-0.26,-0.14,0.45
4.133427143096924,0.82,-0.21,-0.59,1.03
4.143817186355591,1.0,-0.84,-0.84,1.55
4.154807090759277,0.97,-0.47,-0.03,1.07
4.1639251708984375,1.75,0.01,-0.64,1.86
4.175055980682373,1.57,-1.0,-0.15,1.86
4.183855056762695,0.81,-0.55,0.38,1.05
4.193984031677246,0.68,-1.26,0.21,1.44
4.204154968261719,-0.22,-1.02,0.21,1.06
4.214176177978516,-0.43,-1.6,-0.34,1.69
4.225674152374268,-0.44,-1.48,-0.54,1.63
4.234399080276489,-0.78,-0.72,1.07,1.5
4.244537115097046,-0.75,-0.71,1.06,1.47
4.255704164505005,-0.5,-1.58,-0.01,1.65
4.264807224273682,-0.66,-0.11,0.01,0.66
4.276090145111084,-0.11,-1.25,0.71,1.44
4.284980297088623,0.22,-0.8,0.33,0.89
4.294895172119141,0.21,-2.05,0.78,2.2
4.305083274841309,-0.07,-1.3,-0.54,1.4
4.315030097961426,-0.58,-1.68,-0.88,1.98
4.326449155807495,-0.59,-1.69,-1.67,2.44
4.335288047790527,-0.63,-1.33,-1.97,2.45
4.345661163330078,0.33,0.07,-0.51,0.61
4.355460166931152,1.1,0.07,1.57,1.91
4.365601062774658,0.85,0.82,2.02,2.33
4.376838207244873,-0.49,0.68,1.65,1.85
4.385782241821289,-1.43,-1.6,-1.56,2.65
4.3956732749938965,-0.51,-1.15,-4.11,4.29
4.405908107757568,0.32,1.59,-2.95,3.36
4.41636323928833,0.55,2.07,-1.43,2.57
4.42751407623291,1.86,9.0,3.64,9.88
4.4361021518707275,3.51,6.68,5.42,9.29
4.44619607925415,4.12,1.66,-3.31,5.53
4.456263065338135,0.43,3.61,-4.56,5.83
4.472739219665527,-0.87,3.82,-4.71,6.12
4.4775941371917725,-0.67,2.24,-2.84,3.67
4.486561298370361,-1.32,0.39,-0.2,1.39
4.496469974517822,-0.84,0.79,0.74,1.37
4.506739139556885,-0.32,0.56,1.01,1.19
4.516851186752319,-0.51,0.7,-0.26,0.9
4.5282251834869385,-1.2,1.09,-1.98,2.55
4.536945104598999,-1.99,0.66,-2.14,2.99
4.547091007232666,-2.28,-0.99,-1.03,2.69
4.557052135467529,0.66,-2.22,4.91,5.42
4.573011159896851,4.28,-3.2,8.11,9.71
4.578554153442383,0.35,0.01,3.56,3.57
4.587440013885498,-2.69,-2.1,-0.09,3.41
4.597346305847168,-2.12,-0.87,0.03,2.29
4.607600212097168,0.52,1.19,-0.79,1.52
4.617510080337524,2.02,1.02,-1.34,2.62
4.62906813621521,1.7,-0.18,-0.07,1.71
4.637765169143677,0.95,-0.33,0.75,1.25
4.647902011871338,0.38,-0.56,0.12,0.68
4.6579132080078125,0.72,-0.07,0.02,0.72
4.673119068145752,1.2,0.62,-0.07,1.35
4.679202079772949,1.37,1.0,-0.24,1.71
4.688360214233398,1.88,0.87,-0.56,2.14
4.6981611251831055,2.31,0.85,-0.59,2.53
4.708407163619995,1.55,0.69,-0.5,1.76
4.718440055847168,0.48,0.21,0.11,0.53
4.730420112609863,-0.95,-0.3,0.26,1.02
4.738522052764893,-1.89,-0.74,0.05,2.03
4.756899118423462,-2.11,-1.1,0.14,2.38
4.759061098098755,-2.05,-1.11,0.05,2.33
4.768907070159912,-1.32,-0.31,-0.04,1.35
4.7801361083984375,-0.29,0.14,-0.16,0.35
4.789116144180298,0.38,0.22,-0.2,0.48
4.798870086669922,0.59,0.2,0.05,0.62
4.809105157852173,0.6,0.34,0.17,0.71
4.8191680908203125,0.36,0.09,0.06,0.37
4.83063817024231,0.11,-0.08,-0.11,0.17
4.83941912651062,-0.02,-0.01,-0.06,0.06
4.856644153594971,-0.09,0.03,-0.03,0.09
4.859415054321289,0.02,-0.01,-0.11,0.11
4.869416236877441,0.18,-0.09,0.01,0.2
4.881082057952881,0.13,-0.02,0.04,0.13
4.889647006988525,0.09,0.3,-0.4,0.5
4.899877071380615,0.09,0.23,-0.4,0.47
4.909839153289795,0.05,0.01,-0.05,0.07
4.92006516456604,-0.02,-0.05,0.38,0.38
4.931506156921387,0.0,-0.13,0.34,0.36
4.940200090408325,0.11,-0.14,0.07,0.19
4.9513771533966064,0.18,-0.13,0.06,0.23
4.960338115692139,0.21,-0.19,0.23,0.36
4.9726409912109375,0.14,-0.08,0.1,0.18
4.981592178344727,0.19,0.19,-0.05,0.27
4.990563154220581,0.2,0.15,0.01,0.25
5.0002970695495605,0.12,0.05,0.01,0.13
5.010688304901123,0.06,0.06,-0.07,0.11
5.020806074142456,0.03,0.07,-0.11,0.13
5.032345294952393,-0.03,-0.06,0.01,0.06
5.040975093841553,-0.01,-0.08,-0.02,0.08
5.051976203918457,0.05,-0.02,-0.17,0.17
5.061044216156006,0.08,-0.13,0.02,0.15
5.072657108306885,-0.01,-0.2,0.19,0.27
5.082921981811523,0.01,0.06,0.0,0.06
5.091358184814453,0.08,0.18,-0.21,0.28
5.101320266723633,0.15,0.16,-0.3,0.37
5.111461162567139,0.14,0.11,-0.21,0.27
5.1215760707855225,0.03,0.03,-0.15,0.15
5.133401155471802,0.02,-0.03,-0.07,0.07
5.141664981842041,0.08,-0.03,0.08,0.11
5.155212163925171,0.08,-0.02,0.1,0.12
5.161826133728027,0.0,0.04,-0.18,0.18
5.172022104263306,-0.03,0.06,-0.22,0.23
5.183777093887329,-0.01,-0.07,-0.01,0.07
5.192199230194092,0.0,-0.28,0.28,0.39
5.202193260192871,0.02,-0.23,0.31,0.38
5.212325096130371,0.17,-0.05,0.27,0.32
5.222361087799072,0.29,0.1,-0.02,0.3
5.234332084655762,0.34,0.23,-0.38,0.55
5.242647171020508,0.26,0.26,-0.7,0.79
5.256294250488281,-0.03,0.21,-0.76,0.78
5.262776136398315,-0.32,0.17,-0.67,0.76
5.2727251052856445,-0.51,0.07,-0.5,0.71
5.284456253051758,-0.61,-0.06,-0.21,0.64
5.29295015335083,-0.48,-0.09,-0.06,0.49
5.303120136260986,-0.15,-0.11,-0.02,0.18
5.313220977783203,0.31,-0.39,0.33,0.59
5.323065280914307,0.53,-0.39,0.52,0.83
5.334926128387451,0.36,0.06,0.26,0.44
5.343479156494141,0.33,0.25,-0.22,0.46
5.35824728012085,0.48,0.27,-0.49,0.73
5.36347508430481,0.54,0.41,-0.59,0.89
5.373650074005127,-0.01,0.28,-0.46,0.53
5.384926080703735,-0.51,0.12,-0.39,0.65
5.393815040588379,-0.63,-0.19,-0.01,0.65
5.403936147689819,-0.23,-0.08,0.18,0.3
5.413978099822998,0.48,-0.22,0.42,0.67
5.424361228942871,0.76,-0.1,0.25,0.8
5.435579299926758,0.49,0.06,0.0,0.49
5.444217205047607,-0.02,-0.09,-0.14,0.16
5.454233169555664,-0.22,-0.03,-0.23,0.31
5.4643471240997314,-0.09,-0.03,-0.05,0.1
5.474433183670044,-0.08,0.22,-0.06,0.24
5.485785007476807,-0.13,0.13,-0.37,0.41
5.494763135910034,-0.1,0.08,-0.58,0.59
5.504693031311035,-0.01,0.04,-0.36,0.36
5.514739036560059,0.03,0.02,-0.07,0.07
5.524831295013428,0.17,-0.03,0.04,0.17
5.536512136459351,0.19,-0.08,0.11,0.23
5.546297073364258,-0.04,-0.02,0.02,0.04
5.55914306640625,-0.27,-0.03,-0.12,0.29
5.56505823135376,-0.2,-0.08,-0.13,0.25
5.5752272605896,-0.04,0.04,-0.05,0.07
5.586681127548218,0.22,0.17,-0.14,0.31
5.595438003540039,0.34,0.11,-0.29,0.46
5.605556011199951,0.02,-0.04,-0.15,0.15
5.615597248077393,-0.15,-0.06,0.02,0.16
5.625747203826904,-0.21,0.03,-0.2,0.29
5.637344121932983,-0.01,-0.08,-0.4,0.4
5.647252082824707,0.23,-0.05,-0.15,0.27
5.661096096038818,0.18,0.11,0.05,0.21
5.666367053985596,0.09,0.04,0.03,0.1
5.676033973693848,0.21,0.16,-0.24,0.35
5.687572956085205,0.03,-0.02,-0.18,0.18
5.696214199066162,-0.29,0.06,-0.13,0.32
5.706241130828857,-0.22,-0.01,-0.09,0.23
5.716917037963867,0.1,-0.13,0.07,0.17
5.726420164108276,0.21,0.07,0.0,0.22
5.737922191619873,0.17,-0.02,-0.01,0.17
5.7478721141815186,0.16,-0.09,0.05,0.19
5.761847019195557,0.07,-0.05,0.08,0.11
5.766700267791748,-0.03,-0.06,0.11,0.12
5.77690315246582,-0.05,0.03,0.0,0.05
5.788164138793945,0.01,0.09,-0.19,0.21
5.796974182128906,0.14,0.1,-0.32,0.36
5.807068109512329,0.3,0.14,-0.3,0.44
5.816989183425903,0.27,0.12,-0.11,0.31
5.827363967895508,0.08,-0.02,0.12,0.14
5.838993072509766,-0.11,-0.11,0.18,0.23
5.848752021789551,-0.04,-0.08,0.08,0.12
5.862820148468018,0.0,-0.06,0.03,0.06
5.867432117462158,0.05,0.05,-0.06,0.09
5.877686977386475,0.1,0.08,-0.12,0.17
5.889070987701416,0.03,0.05,-0.2,0.2
5.897813081741333,-0.02,0.02,-0.18,0.18
5.907871246337891,0.03,0.03,-0.1,0.1
5.918082237243652,0.09,0.0,0.0,0.09
5.928116083145142,0.07,-0.06,0.1,0.13
5.939883232116699,0.07,-0.03,0.05,0.09
5.948325157165527,0.16,-0.11,0.04,0.19
5.962061166763306,0.18,-0.09,0.11,0.22
5.968357086181641,0.05,0.03,0.02,0.06
5.978521108627319,-0.09,0.04,-0.21,0.23
5.989943981170654,-0.1,0.09,-0.43,0.45
5.9986042976379395,-0.01,0.1,-0.41,0.42
6.009137153625488,0.07,0.11,-0.28,0.3
6.018836975097656,0.13,0.12,-0.12,0.21
6.028866291046143,0.32,-0.05,0.22,0.39
6.040341138839722,0.27,-0.14,0.47,0.55
6.0489161014556885,0.06,-0.14,0.4,0.42
6.061481952667236,0.05,-0.18,0.1,0.21
6.069038152694702,0.16,-0.07,-0.06,0.18
6.079334259033203,0.22,0.03,0.03,0.22
6.090481281280518,0.05,0.03,0.01,0.05
6.099750995635986,-0.21,0.09,-0.3,0.37
6.10952615737915,-0.27,0.14,-0.53,0.61
6.119626045227051,-0.15,0.14,-0.42,0.46
6.1296162605285645,-0.03,0.11,-0.18,0.21
6.141390085220337,0.15,0.05,-0.03,0.16
6.157079219818115,0.35,-0.1,0.08,0.37
6.164023160934448,0.34,-0.1,0.17,0.39
6.1700050830841064,0.13,-0.05,0.25,0.28
6.180140018463135,-0.05,-0.09,0.17,0.19
6.19151496887207,-0.09,-0.06,-0.01,0.1
6.200315952301025,-0.02,0.01,-0.06,0.06
6.210292100906372,0.01,0.06,-0.05,0.07
6.220491170883179,-0.01,0.1,-0.2,0.22
6.23056697845459,-0.06,0.02,-0.32,0.32
6.241987228393555,0.07,0.03,-0.25,0.26
6.256562232971191,0.11,0.12,-0.11,0.19
6.262968063354492,0.1,0.1,-0.08,0.16
6.270843982696533,0.11,-0.02,0.0,0.11
6.280939102172852,0.14,-0.08,0.17,0.23
6.292180061340332,0.07,-0.08,0.22,0.24
6.301093101501465,0.02,-0.07,0.15,0.16
6.311144113540649,-0.05,-0.03,0.02,0.06
6.321256160736084,-0.11,0.0,-0.06,0.12
6.3313140869140625,-0.09,-0.04,-0.09,0.13
6.3441162109375,-0.01,-0.02,-0.08,0.08
6.35655403137207,0.1,0.05,-0.17,0.2
6.363227128982544,0.13,0.06,-0.24,0.27
6.3716881275177,0.12,0.06,-0.12,0.18
6.38172721862793,0.1,0.03,0.0,0.1
6.392873287200928,0.07,0.03,0.0,0.07
6.401882171630859,-0.01,0.05,-0.03,0.05
6.411822080612183,-0.06,0.03,-0.06,0.09
6.4219810962677,0.03,-0.05,0.07,0.09
6.432124137878418,0.12,-0.03,0.15,0.19
6.4444921016693115,0.15,-0.06,0.18,0.24
6.456058025360107,0.17,-0.07,-0.02,0.18
6.462168216705322,0.17,-0.04,-0.12,0.21
6.4724812507629395,0.06,0.01,-0.09,0.1
6.482448101043701,-0.04,0.01,0.04,0.05
6.4936981201171875,-0.07,0.03,0.04,0.08
6.502752304077148,-0.13,0.05,-0.14,0.19
6.512640953063965,-0.1,0.02,-0.17,0.19
6.522890090942383,0.0,0.04,-0.05,0.06
6.5333051681518555,0.03,0.09,-0.03,0.09
6.5456862449646,0.08,0.01,-0.08,0.11
6.556267261505127,0.16,-0.03,-0.11,0.19
6.563138961791992,0.19,-0.06,0.0,0.19
6.573124170303345,0.16,-0.1,0.21,0.28
6.5833892822265625,0.03,-0.05,0.12,0.13
6.594513177871704,-0.04,-0.01,-0.03,0.05
6.603520154953003,-0.03,0.01,-0.1,0.1
6.613481044769287,-0.04,0.03,-0.18,0.18
6.623723030090332,0.0,0.05,-0.11,0.12
6.633573055267334,0.11,0.03,-0.01,0.11
6.646339178085327,0.16,0.02,0.05,0.16
6.65661096572876,0.17,0.03,0.04,0.17
6.663895130157471,0.1,0.03,-0.03,0.1
6.6740031242370605,0.08,0.01,-0.07,0.1
6.684009075164795,0.13,-0.07,0.1,0.17
6.695569038391113,0.02,-0.05,0.08,0.09
6.704301118850708,-0.11,-0.02,-0.13,0.17
6.7142510414123535,-0.13,-0.06,-0.12,0.18
6.724544048309326,-0.08,-0.03,0.0,0.08
6.734331130981445,-0.05,-0.03,0.06,0.08
6.745902061462402,-0.02,0.01,0.02,0.03
6.757091045379639,0.02,0.08,-0.14,0.16
6.764642238616943,0.11,0.08,-0.14,0.19
6.774717092514038,0.13,0.12,-0.17,0.24
6.784877300262451,0.16,0.16,-0.21,0.3
6.796179294586182,0.2,0.08,-0.14,0.25
6.805098056793213,0.17,0.03,-0.05,0.17
6.815120220184326,0.04,-0.03,0.04,0.06
6.825301170349121,-0.04,-0.09,0.16,0.18
6.835391044616699,-0.05,-0.15,0.3,0.33
6.846985101699829,0.02,-0.14,0.31,0.34
6.856657981872559,0.09,-0.01,0.11,0.14
6.865471124649048,0.18,0.11,-0.08,0.22
6.875583171844482,0.36,0.16,-0.2,0.44
6.885807037353516,0.56,0.07,-0.08,0.57
6.89695930480957,0.43,-0.1,0.16,0.46
6.9061360359191895,0.07,-0.09,0.4,0.41
6.916558265686035,-0.08,-0.01,0.28,0.29
6.926303148269653,-0.06,-0.12,0.0,0.13
6.936182975769043,0.07,-0.12,-0.04,0.14
6.94756007194519,0.11,0.0,0.04,0.11
6.9567201137542725,0.12,0.2,-0.03,0.23
6.966860294342041,0.25,0.18,-0.18,0.35
6.976509094238281,0.39,0.04,-0.32,0.5
6.986610174179077,0.39,-0.04,-0.12,0.41
6.997997283935547,0.29,-0.05,0.25,0.38
7.006742000579834,0.17,-0.11,0.35,0.4
7.016848087310791,0.03,-0.17,0.17,0.24
7.026984214782715,-0.06,-0.12,0.14,0.19
7.037172079086304,-0.17,0.16,0.01,0.23
7.048455238342285,-0.27,0.72,-0.54,0.93
7.057260990142822,-0.28,0.96,-1.17,1.53
7.067076206207275,-0.11,0.47,-1.39,1.47
7.077362060546875,0.4,-0.04,-0.59,0.71
7.087438106536865,0.68,0.14,0.06,0.69
7.09870719909668,0.65,0.33,-0.01,0.72
7.107629299163818,0.73,0.16,0.17,0.76
7.1176841259002686,0.76,0.07,0.31,0.82
7.127793073654175,0.54,0.06,0.13,0.55
7.1392130851745605,0.5,-0.11,0.11,0.52
7.1565210819244385,0.53,-0.26,0.41,0.71
7.158650159835815,0.23,-0.21,0.56,0.64
7.168089151382446,-0.06,-0.41,0.6,0.72
7.1781511306762695,-0.29,-0.65,0.62,0.94
7.188387155532837,-0.37,-0.63,0.58,0.93
7.2000651359558105,-0.17,-0.37,0.59,0.71
7.208458185195923,0.02,-0.09,0.4,0.41
7.218465089797974,0.19,0.03,0.16,0.25
7.228870153427124,0.18,0.08,0.06,0.2
7.239699125289917,0.07,0.08,-0.17,0.2
7.257512092590332,-0.01,0.12,-0.27,0.29
7.259638071060181,-0.05,0.12,-0.34,0.36
7.268980026245117,0.02,0.15,-0.02,0.15
7.278850078582764,0.03,0.24,-0.1,0.26
7.288977146148682,-0.03,0.19,-0.47,0.5
7.300960063934326,-0.05,0.14,-0.56,0.57
7.3091630935668945,-0.07,0.23,-0.55,0.6
7.319248199462891,0.01,-0.07,-0.48,0.48
7.329331159591675,0.1,-0.13,-0.07,0.17
7.340534210205078,0.05,-0.19,0.25,0.31
7.357361078262329,-0.03,-0.44,0.52,0.68
7.359544277191162,-0.08,-0.34,0.82,0.89
7.369623184204102,-0.13,-0.14,0.56,0.59
7.379711151123047,-0.09,0.01,0.22,0.23
7.389871120452881,-0.08,0.06,-0.19,0.21
7.401364088058472,-0.16,-0.02,-0.46,0.48
7.4099280834198,-0.29,0.09,-0.66,0.72
7.4200921058654785,-0.36,0.02,-0.79,0.86
7.430061101913452,-0.36,-0.18,-0.49,0.63
7.441393136978149,-0.28,-0.11,0.11,0.32
7.458585262298584,-0.06,-0.06,0.45,0.45
7.460721969604492,0.06,-0.02,0.28,0.28
7.470588207244873,0.12,0.03,0.25,0.27
7.480517148971558,0.14,0.04,0.22,0.26
7.490687131881714,0.22,-0.03,0.19,0.29
7.501779079437256,0.19,0.1,-0.12,0.24
7.510838031768799,0.06,0.13,-0.66,0.67
7.520864009857178,-0.04,0.05,-0.78,0.78
7.530986070632935,0.04,-0.01,-0.36,0.36
7.541055202484131,0.14,0.08,0.07,0.17
7.557981967926025,0.16,0.02,0.25,0.29
7.561050176620483,0.08,-0.02,0.25,0.26
7.571217060089111,0.1,0.04,0.3,0.31
7.581501007080078,0.17,0.05,0.19,0.25
7.591580152511597,0.32,0.13,0.22,0.4
7.603001117706299,0.56,0.09,0.45,0.72
7.611623287200928,0.52,0.22,0.25,0.61
7.621708154678345,0.44,0.46,-0.35,0.72
7.631843090057373,0.67,0.44,-0.54,0.96
7.641909122467041,0.42,-0.33,-0.43,0.68
7.658712148666382,0.33,0.59,0.87,1.1
7.662024974822998,0.78,0.32,0.52,0.99
7.67209529876709,0.33,-0.23,-0.52,0.65
7.68216609954834,0.34,0.64,0.73,1.02
7.692273139953613,0.91,0.49,0.53,1.16
7.703679084777832,1.05,0.24,-0.5,1.18
7.712478160858154,0.58,0.21,-0.16,0.63
7.722503185272217,0.7,0.93,0.82,1.42
7.732604026794434,1.16,0.23,-0.27,1.21
7.742632150650024,0.48,-0.15,-0.88,1.01
7.758726119995117,0.73,1.24,0.52,1.53
7.762814044952393,1.24,0.47,-0.45,1.4
7.7728800773620605,0.86,0.12,-0.55,1.02
7.78328013420105,0.89,0.91,1.3,1.81
7.793030261993408,1.46,1.2,0.67,2.0
7.804364204406738,1.46,0.65,-0.57,1.69
7.8133251667022705,1.8,1.32,0.87,2.39
7.823305130004883,1.69,1.54,1.19,2.57
7.833737134933472,1.32,2.65,-0.1,2.96
7.843597173690796,1.41,3.07,-1.12,3.55
7.859028100967407,1.65,2.66,-0.17,3.13
7.863691091537476,0.56,5.8,0.43,5.84
7.873760223388672,-1.36,11.27,-0.69,11.37
7.883661270141602,-1.01,12.6,-0.19,12.64
7.894026279449463,1.17,11.64,0.87,11.73
7.905494213104248,2.35,10.43,-1.58,10.8
7.9141130447387695,1.27,11.07,-3.53,11.68
7.924108028411865,0.13,11.96,-3.3,12.4
7.93549919128418,0.43,9.58,-0.98,9.63
7.944411277770996,1.83,7.68,3.87,8.79
7.959143161773682,2.06,6.5,5.69,8.88
7.964497089385986,0.39,4.83,2.74,5.56
7.974564075469971,0.62,-0.66,0.12,0.91
7.984620094299316,2.47,-6.06,0.43,6.55
7.994734287261963,5.07,-8.48,1.57,10.0
8.006124019622803,4.01,-1.38,2.04,4.7
8.014935970306396,2.39,4.83,0.07,5.38
8.024903297424316,5.18,4.67,-1.38,7.1
8.03622817993164,8.8,3.73,-2.24,9.81
8.045073986053467,11.38,3.31,-1.82,11.99
8.058210134506226,12.32,3.34,-1.46,12.84
8.065248012542725,11.81,3.44,-2.2,12.49
8.075310230255127,10.7,3.39,-3.37,11.71
8.085328102111816,9.69,3.31,-3.78,10.91
8.095501184463501,8.44,3.06,-3.17,9.52
8.106965065002441,6.99,2.51,-2.14,7.72
8.115746974945068,5.64,2.04,-1.72,6.23
8.125916004180908,4.28,1.92,-1.86,5.04
8.137038230895996,3.02,2.09,-2.26,4.31
8.145917177200317,2.04,2.28,-2.53,3.97
8.158162117004395,1.31,2.46,-2.44,3.7
8.166591167449951,0.75,2.7,-2.13,3.51
8.176217079162598,0.28,2.85,-1.51,3.23
8.186362266540527,-0.12,2.98,-0.81,3.09
8.196400165557861,-0.54,3.23,-0.2,3.28
8.20783519744873,-0.96,3.36,0.11,3.49
8.216957092285156,-1.37,3.34,0.06,3.61
8.226511001586914,-1.86,3.39,-0.19,3.87
8.237792015075684,-2.4,3.4,-0.39,4.17
8.246774196624756,-2.91,3.23,-0.4,4.36
8.258409976959229,-3.26,2.56,-0.6,4.18
8.26707124710083,-3.49,1.28,-0.71,3.78
8.27695608139038,-3.95,0.15,-0.49,3.98
8.28701400756836,-4.9,0.09,-0.33,4.91
8.297080993652344,-5.87,0.31,-0.87,5.94
8.30833101272583,-6.34,-0.6,-2.69,6.91
8.317283153533936,-6.22,-3.12,-4.25,8.15
8.327388286590576,-6.26,-4.69,-4.9,9.23
8.340250968933105,-6.96,-4.17,-4.56,9.3
8.347438097000122,-7.7,-3.1,-4.65,9.51
8.358749151229858,-7.99,-2.99,-5.36,10.07
8.367526054382324,-7.75,-4.03,-6.22,10.72
8.377766132354736,-7.42,-5.36,-6.62,11.29
8.387847185134888,-7.11,-6.89,-6.18,11.67
8.397895097732544,-6.97,-8.14,-4.49,11.61
8.409333229064941,-7.01,-8.9,-3.04,11.72
8.418251037597656,-6.93,-9.67,-2.29,12.11
8.42823600769043,-6.64,-10.11,-0.07,12.09
8.44091510772705,-6.6,-9.46,1.19,11.59
8.44816517829895,-6.79,-8.37,0.41,10.78
8.459519147872925,-7.09,-7.22,0.44,10.12
8.468398094177246,-7.22,-4.79,-1.21,8.74
8.47846508026123,-5.85,-1.56,1.83,6.32
8.488567113876343,-3.23,-6.95,4.19,8.73
8.498719215393066,-2.11,-5.21,4.22,7.02
8.51009225845337,-0.49,-0.76,3.84,3.94
8.519041061401367,-0.21,1.45,1.15,1.86
8.52885103225708,-0.48,2.51,0.67,2.64
8.539055109024048,-0.38,3.41,2.68,4.35
8.549000263214111,-2.91,9.14,-1.84,9.76
8.56024718284607,-7.72,19.82,-6.85,22.34
8.569213151931763,-5.02,13.36,-6.88,15.84
8.57925796508789,1.05,-3.44,-1.64,3.95
8.589422225952148,0.28,-7.53,-3.56,8.33
8.599946022033691,-0.96,-5.5,-7.42,9.28
8.610954284667969,-3.21,-1.52,-9.05,9.72
8.619810104370117,-4.32,0.36,-8.44,9.48
8.62975025177002,-3.43,-1.59,-4.87,6.16
8.639881134033203,-1.69,-2.76,2.27,3.95
8.656958103179932,-0.54,-1.77,2.54,3.14
8.661339282989502,0.05,-0.02,0.36,0.36
8.670091152191162,1.17,0.84,5.5,5.68
8.680171012878418,1.26,0.35,5.49,5.64
8.690270185470581,-0.56,-0.34,3.67,3.72
8.70029616355896,-2.75,-1.1,1.82,3.47
8.71161413192749,-3.73,-1.72,-0.25,4.11
8.720619201660156,-3.65,-1.8,-1.03,4.19
8.731865167617798,-2.54,-1.02,-0.61,2.8
8.741283178329468,-0.38,-0.24,-0.47,0.65
8.750648021697998,1.39,0.26,0.33,1.45
8.762096166610718,2.02,1.19,1.05,2.56
8.770913124084473,1.67,1.47,0.0,2.22
8.781016111373901,0.91,0.83,-1.19,1.71
8.791079998016357,0.01,-0.03,-1.69,1.69
8.801275253295898,-0.55,-0.51,-1.3,1.5
8.812561988830566,-0.38,-0.55,-0.42,0.78
8.821421146392822,0.17,-0.26,0.65,0.72
8.832372188568115,0.56,0.08,1.31,1.42
8.841974258422852,0.57,0.22,1.24,1.38
8.851527214050293,0.27,0.2,0.43,0.54
8.862930297851562,0.09,0.25,-0.26,0.37
8.871817111968994,0.25,0.23,-0.48,0.58
8.881852149963379,0.5,0.22,-0.45,0.7
8.89196515083313,0.7,0.34,-0.13,0.78
8.90228796005249,0.83,0.23,0.2,0.88
8.913680076599121,0.56,0.04,0.23,0.6
8.922309160232544,0.01,0.0,-0.07,0.07
8.940988063812256,-0.3,-0.25,-0.25,0.46
8.943106174468994,-0.39,-0.47,-0.2,0.64
8.952406167984009,-0.33,-0.43,0.05,0.54
8.963743209838867,-0.27,-0.22,0.24,0.42
8.972570180892944,-0.22,0.08,0.24,0.33
8.982728004455566,0.04,0.01,0.34,0.34
8.99284815788269,0.33,0.09,0.58,0.67
9.002877235412598,0.39,0.23,0.55,0.71
9.014416217803955,0.29,0.25,0.53,0.65
9.023082256317139,0.1,0.21,0.41,0.47
9.041953086853027,0.0,-0.06,0.16,0.17
9.04440712928772,-0.07,-0.05,0.36,0.37
9.053227186203003,-0.2,-0.13,0.58,0.62
9.064685106277466,-0.23,-0.43,0.41,0.63
9.073477268218994,-0.22,-0.49,0.39,0.66
9.083751201629639,-0.2,0.01,0.61,0.64
9.093639135360718,-0.27,0.19,0.36,0.48
9.103785037994385,-0.26,-0.02,0.42,0.49
9.115211009979248,-0.27,-0.09,0.78,0.83
9.123944282531738,-0.02,-0.23,1.12,1.14
9.14045000076294,0.11,-0.14,0.89,0.9
9.143977165222168,0.22,0.04,0.79,0.82
9.15399718284607,0.26,0.5,0.67,0.87
9.165492057800293,0.79,0.09,0.34,0.86
9.174237251281738,1.3,0.41,0.55,1.46
9.184085130691528,1.44,1.28,1.08,2.2
9.194337129592896,1.6,1.18,1.24,2.34
9.204576969146729,1.59,1.43,1.51,2.61
9.215883255004883,1.59,2.05,1.82,3.16
9.224754095077515,1.75,2.79,2.35,4.04
9.240592002868652,1.65,2.37,2.87,4.07
9.244739055633545,0.79,2.19,3.45,4.16
9.25486707687378,0.12,2.65,5.66,6.25
9.266598224639893,-0.34,3.76,6.8,7.77
9.275009155273438,-0.23,1.97,11.5,11.66
9.285007953643799,0.07,0.36,13.85,13.85
9.295135021209717,0.13,0.81,13.22,13.24
9.305267095565796,0.23,2.21,11.14,11.35
9.31694221496582,0.56,2.83,7.21,7.76
9.325465202331543,1.14,2.02,4.28,4.86
9.339686155319214,1.77,1.17,2.52,3.29
9.345450162887573,2.14,0.5,1.12,2.46
9.355586051940918,2.83,0.38,-0.23,2.86
9.36746597290039,4.01,1.02,-0.97,4.24
9.375761985778809,5.73,2.64,-0.96,6.38
9.385845184326172,8.24,4.63,0.05,9.45
9.395889282226562,10.56,5.63,1.21,12.02
9.406023979187012,10.9,5.8,0.28,12.35
9.417842149734497,8.94,5.27,-1.44,10.47
9.426249027252197,5.82,3.91,-1.1,7.09
9.440793991088867,3.56,2.89,-0.77,4.64
9.446345090866089,2.03,1.99,-1.01,3.01
9.45642900466919,1.01,1.21,-0.69,1.72
9.468180179595947,0.48,0.64,0.22,0.82
9.476603031158447,0.1,0.19,1.08,1.1
9.486694097518921,-0.42,-0.14,1.9,1.95
9.496767044067383,-0.96,-0.55,2.39,2.63
9.506972074508667,-1.49,-1.11,2.54,3.14
9.518448114395142,-2.04,-1.7,2.33,3.53
9.528479099273682,-2.72,-1.91,2.16,3.96
9.542922019958496,-3.43,-1.91,1.76,4.3
9.5471510887146,-4.1,-1.94,1.3,4.71
9.557311058044434,-4.66,-1.93,0.85,5.11
9.568466186523438,-5.12,-1.67,-0.13,5.38
9.57759428024292,-5.17,-1.99,-1.4,5.71
9.587621212005615,-4.61,-3.07,-2.02,5.89
9.5975821018219,-3.98,-3.78,-2.51,6.03
9.607713222503662,-3.35,-3.86,-3.2,6.03
9.619208097457886,-2.58,-3.39,-3.45,5.48
9.629295110702515,-1.95,-2.83,-3.03,4.58
9.644057273864746,-1.55,-2.57,-2.38,3.83
9.647926092147827,-1.53,-2.66,-1.62,3.47
9.658128261566162,-1.94,-2.92,-0.98,3.64
9.669462203979492,-2.62,-3.12,-0.53,4.1
9.678203105926514,-3.24,-3.27,-0.34,4.61
9.688356161117554,-3.76,-3.25,-0.42,4.98
9.698369026184082,-4.03,-3.14,-0.8,5.17
9.7086181640625,-3.87,-3.08,-1.26,5.1
9.720166206359863,-3.46,-2.95,-1.57,4.81
9.729923248291016,-3.04,-2.69,-1.82,4.44
9.745127201080322,-2.64,-2.56,-1.93,4.15
9.748890161514282,-2.29,-2.58,-1.78,3.88
9.758857250213623,-2.19,-2.4,-1.57,3.6
9.770184993743896,-2.19,-2.04,-1.54,3.36
9.779128074645996,-2.21,-1.84,-1.64,3.31
9.789120197296143,-2.1,-2.14,-1.81,3.5
9.799252986907959,-2.04,-2.5,-1.99,3.79
9.809322118759155,-2.13,-2.56,-2.34,4.07
9.820850133895874,-2.17,-2.54,-2.72,4.3
9.830807209014893,-2.13,-2.53,-2.91,4.4
9.845293045043945,-2.12,-2.57,-2.86,4.39
9.849987983703613,-2.25,-2.51,-2.54,4.22
9.859700202941895,-2.44,-2.51,-1.88,3.97
9.871086120605469,-2.79,-2.82,-1.33,4.18
9.879875183105469,-3.27,-3.69,-1.04,5.03
9.889999151229858,-3.88,-4.65,-1.04,6.14
9.900334119796753,-4.64,-4.86,-1.32,6.84
9.910280227661133,-5.26,-4.55,-1.88,7.2
9.921584129333496,-5.4,-4.58,-2.11,7.38
9.930333137512207,-5.72,-2.27,-4.03,7.35
9.944367170333862,-7.99,8.6,-5.18,12.83
9.950441122055054,-2.07,1.92,9.56,9.96
9.960535049438477,0.8,0.19,4.3,4.37
9.971898078918457,1.02,1.46,-5.28,5.57
9.98066520690918,3.06,3.9,-5.22,7.19
9.990761280059814,4.94,5.75,-0.73,7.61
10.000625133514404,5.46,9.16,0.61,10.68
10.011020183563232,5.45,12.1,-2.78,13.55
10.02250623703003,6.63,7.25,-7.54,12.38
10.031097173690796,7.15,-1.0,-7.8,10.62
10.045549154281616,5.64,1.61,8.58,10.39
10.051155090332031,0.34,2.39,0.21,2.42
10.06129503250122,-1.36,-1.04,-1.48,2.26
10.072641134262085,-1.18,-4.48,5.45,7.15
10.081595182418823,-2.77,-3.38,1.93,4.77
10.091641187667847,-3.96,-1.9,-0.38,4.4
10.101720094680786,-4.19,-2.61,1.24,5.08
10.111792087554932,-4.34,-2.88,-0.51,5.23
10.123156070709229,-4.78,-2.54,-0.4,5.42
10.131993293762207,-5.01,-2.4,0.79,5.61
10.146319150924683,-4.39,-1.78,0.22,4.74
10.15205717086792,-2.99,-1.3,0.68,3.33
10.162126064300537,-1.6,-0.79,0.65,1.89
10.173477172851562,-0.45,-0.11,0.25,0.52
10.18229627609253,0.51,0.3,-0.19,0.62
10.19242000579834,1.08,0.44,-0.5,1.26
10.202548027038574,1.35,0.51,-0.69,1.59
10.212512016296387,1.25,0.44,-0.96,1.63
10.224033117294312,0.84,0.29,-1.06,1.38
10.240331172943115,0.23,0.03,-0.67,0.7
10.246557235717773,-0.21,-0.19,-0.19,0.34
10.252896070480347,-0.48,-0.29,-0.01,0.56
10.262992143630981,-0.67,-0.48,0.04,0.82
10.274304151535034,-0.85,-0.7,0.11,1.1
10.283531188964844,-0.95,-0.64,0.04,1.14
10.293195247650146,-0.85,-0.3,-0.05,0.9
10.303353071212769,-0.61,0.1,0.03,0.61
10.31342601776123,-0.31,0.35,-0.03,0.46
10.32629919052124,0.06,0.44,-0.19,0.48
10.341694116592407,0.42,0.34,-0.29,0.61
10.348558187484741,0.56,-0.14,-0.39,0.69
10.35378122329712,0.24,-0.64,-0.49,0.84
10.363797187805176,-0.13,-0.82,-0.07,0.83
10.375247955322266,-0.5,-0.74,0.19,0.91
10.383811950683594,-0.73,-0.49,0.36,0.95
10.394029140472412,-0.82,-0.16,0.24,0.86
10.404138088226318,-0.62,0.0,-0.08,0.62
10.41432523727417,-0.2,-0.32,-0.36,0.52
10.42710828781128,0.12,-0.91,-0.58,1.08
10.441296100616455,0.1,-1.11,-0.58,1.25
10.447565078735352,-0.23,-0.78,-0.75,1.1
10.454509258270264,-0.6,-0.41,-0.88,1.14
10.464535236358643,-0.82,-0.2,-0.4,0.93
10.475973129272461,-0.8,-0.05,0.23,0.83
10.484586238861084,-0.46,-0.09,0.68,0.82
10.494763135910034,0.08,-0.24,1.2,1.22
10.504876136779785,0.58,-0.18,1.52,1.63
10.51499319076538,0.81,0.29,1.7,1.9
10.527513027191162,0.66,0.73,0.85,1.3
10.540943145751953,0.25,0.48,-1.23,1.34
10.54702615737915,-0.29,-0.09,-3.55,3.56
10.555355072021484,-0.99,-0.19,-4.71,4.81
10.565384149551392,-1.34,0.03,-1.89,2.31
10.576725006103516,-0.89,0.25,2.9,3.04
10.585544109344482,-0.22,0.3,3.06,3.08
10.595559120178223,0.56,0.17,2.98,3.03
10.60569429397583,1.19,-0.01,3.49,3.68
10.615828037261963,1.13,-0.11,1.77,2.1
10.628031253814697,0.67,0.1,-0.58,0.89
10.640793085098267,0.12,0.13,-3.14,3.14
10.646625995635986,-0.4,-0.11,-4.59,4.6
10.656107187271118,-0.57,0.09,-3.48,3.52
10.666030168533325,-0.2,0.58,-0.21,0.64
10.677430152893066,0.53,1.12,1.62,2.03
10.686496257781982,1.31,1.17,2.04,2.69
10.696388244628906,1.76,0.72,1.95,2.72
10.706530094146729,1.65,0.11,1.46,2.2
10.71701717376709,0.91,-0.2,0.11,0.93
10.727972030639648,0.09,0.01,-1.69,1.69
10.74121904373169,-0.52,0.14,-2.45,2.5
10.747003078460693,-0.82,-0.02,-1.82,1.99
10.756862163543701,-0.69,-0.21,-0.5,0.87
10.76712703704834,-0.32,-0.25,0.55,0.68
10.778495073318481,0.03,-0.03,1.5,1.5
10.787143230438232,0.2,0.24,1.77,1.79
10.797329187393188,0.37,0.19,1.72,1.76
10.807322978973389,0.71,-0.04,1.0,1.22
10.817257165908813,0.77,-0.01,-0.49,0.91
10.828903198242188,0.65,0.23,-1.45,1.6
10.841162204742432,0.43,0.35,-1.75,1.83
10.847512245178223,0.05,0.06,-1.1,1.1
10.85772705078125,-0.41,-0.28,-0.14,0.51
10.867699146270752,-0.76,-0.4,0.45,0.96
10.879090070724487,-1.03,-0.41,0.88,1.41
10.888013124465942,-1.01,-0.48,1.14,1.59
10.898171186447144,-0.5,-0.59,1.18,1.41
10.908164024353027,0.12,-0.54,0.55,0.78
10.918253183364868,0.37,-0.29,-0.73,0.86
10.929486274719238,0.37,0.22,-1.37,1.43
10.941392183303833,0.25,0.71,-1.22,1.43
10.948400020599365,-0.05,0.73,-0.8,1.08
10.958585262298584,-0.33,0.29,-0.16,0.46
10.968609094619751,-0.4,-0.27,0.36,0.6
10.98015022277832,-0.39,-0.65,0.72,1.04
10.988967180252075,-0.35,-0.63,0.88,1.13
10.99878215789795,-0.18,-0.46,0.77,0.91
11.0089430809021,0.21,-0.42,0.48,0.67
11.019163131713867,0.49,-0.55,-0.02,0.73
11.030463218688965,0.46,-0.38,-0.75,0.95
11.04139518737793,0.1,0.2,-1.41,1.42
11.049040079116821,-0.26,0.79,-1.04,1.33
11.059453964233398,-0.45,1.13,-0.21,1.23
11.069406986236572,-0.44,1.04,-0.04,1.12
11.080810070037842,-0.14,0.51,0.04,0.53
11.08959412574768,0.08,-0.14,0.05,0.16
11.10011911392212,0.12,-0.53,0.23,0.59
11.109957218170166,0.06,-0.63,0.43,0.76
11.121169090270996,0.03,-0.58,0.62,0.84
11.131109237670898,0.04,-0.58,0.64,0.86
11.140541076660156,0.05,-0.5,0.41,0.64
11.150423049926758,0.02,-0.26,0.24,0.35
11.160198211669922,-0.03,0.04,0.06,0.07
11.17029619216919,-0.01,0.31,-0.07,0.31
11.181571960449219,0.05,0.42,-0.25,0.49
11.190368175506592,0.15,0.26,-0.24,0.38
11.200520038604736,0.28,-0.52,0.22,0.63
11.210567951202393,0.17,-0.7,0.08,0.72
11.221819162368774,0.04,-0.29,-0.57,0.64
11.232017040252686,-0.35,-0.11,-0.7,0.79
11.241130113601685,-0.25,0.62,-0.65,0.93
11.250586032867432,0.19,1.18,-0.29,1.22
11.260930061340332,0.22,0.77,-0.04,0.8
11.271014213562012,-0.7,-0.35,0.29,0.83
11.282346248626709,-0.03,-0.45,1.11,1.19
11.29117727279663,0.27,-0.48,1.21,1.32
11.30119013786316,-2.46,-1.54,0.26,2.91
11.311378002166748,-2.1,-1.84,1.03,2.97
11.322646141052246,-1.17,-0.54,-0.09,1.29
11.340720176696777,-1.48,-0.49,0.5,1.63
11.342843055725098,-0.74,0.45,0.09,0.87
11.351636171340942,-0.16,0.79,-0.97,1.26
11.361826181411743,1.0,1.17,-0.7,1.69
11.371932029724121,2.67,1.39,-0.41,3.03
11.383669137954712,3.45,0.74,-1.12,3.7
11.392102241516113,2.64,-0.17,-0.89,2.79
11.402228116989136,0.18,-0.53,0.26,0.61
11.412108182907104,-2.26,-0.4,0.48,2.34
11.42349910736084,-3.36,-0.28,0.42,3.39
11.441749095916748,-3.22,-0.49,0.51,3.29
11.443843126296997,-2.44,-1.03,0.72,2.74
11.452422142028809,-1.62,-1.35,0.71,2.22
11.462602138519287,-1.51,-1.43,0.62,2.17
11.472670078277588,-1.59,-1.59,0.31,2.26
11.48470401763916,-1.05,-1.58,0.13,1.9
11.492930173873901,-0.29,-1.43,0.1,1.46
11.50300121307373,0.37,-1.04,0.28,1.13
11.512994289398193,1.02,-0.69,-0.06,1.23
11.523178100585938,1.29,-0.26,-0.01,1.31
11.542610168457031,1.28,0.16,0.12,1.29
11.544690132141113,0.68,0.27,0.11,0.73
11.553325176239014,0.02,0.13,0.34,0.36
11.563486099243164,0.1,-0.05,-0.19,0.22
11.573506116867065,0.41,-0.07,-0.5,0.65
11.585225105285645,-0.1,-0.19,-0.3,0.36
11.593775272369385,0.02,0.21,-0.01,0.21
11.603849172592163,0.52,0.69,0.23,0.89
11.613814115524292,-0.15,0.12,0.71,0.73
11.624000072479248,-0.84,-0.18,0.46,0.97
11.642754077911377,-0.54,-0.18,-0.09,0.57
11.644744157791138,-0.58,-0.49,-0.87,1.15
11.654116153717041,-0.23,-0.43,-1.77,1.83
11.664278984069824,0.12,-0.28,-1.03,1.07
11.674328088760376,0.04,-0.62,0.83,1.03
11.68570327758789,0.66,-0.27,0.6,0.93
11.694473266601562,0.93,0.44,-0.03,1.02
11.704553127288818,0.59,0.66,0.32,0.94
11.714624166488647,0.44,0.24,-0.5,0.7
11.724770069122314,0.57,-0.06,-0.85,1.02
11.743778228759766,0.9,0.32,-0.78,1.23
11.745918273925781,1.23,0.45,-0.67,1.47
11.75497817993164,1.5,0.86,-0.45,1.78
11.765096187591553,1.77,0.72,-0.2,1.92
11.775077104568481,1.34,0.0,-0.7,1.51
11.786656141281128,1.37,-0.19,-1.1,1.76
11.795281171798706,0.08,-1.09,1.41,1.78
11.805437088012695,-0.53,0.67,-0.08,0.85
11.815377235412598,-0.38,0.95,-0.06,1.02
11.825616121292114,-1.11,-0.18,0.14,1.13
11.843289136886597,-1.2,-0.09,-0.24,1.22
11.845685958862305,-0.74,-0.15,0.11,0.76
11.855688095092773,-0.65,-0.44,0.02,0.78
11.865848064422607,-0.5,-0.23,0.26,0.6
11.875905990600586,-0.22,-0.19,0.4,0.49
11.887426137924194,-0.35,-0.06,0.25,0.43
11.896140098571777,-0.59,0.03,0.35,0.68
11.906153202056885,-0.7,-0.04,-0.01,0.7
11.924962997436523,-0.94,0.0,-0.21,0.96
11.926974296569824,-0.94,-0.44,-0.12,1.04
11.937599182128906,-1.22,-0.58,0.13,1.35
11.946402072906494,-2.47,-0.86,0.07,2.61
11.956486225128174,-2.4,-1.38,0.0,2.76
11.96697211265564,-2.77,-1.45,-0.78,3.22
11.976692199707031,-2.09,-1.43,-1.25,2.82
11.988123178482056,0.28,-1.1,-0.82,1.4
11.996847152709961,1.92,-0.26,-0.22,1.94
12.00695514678955,3.46,0.6,0.82,3.6
12.018570184707642,3.27,0.91,0.7,3.46
12.027289152145386,1.96,0.87,0.31,2.16
12.042534112930298,0.64,0.26,-0.11,0.69
12.047240257263184,0.94,0.07,-0.35,1.0
12.057371139526367,0.73,0.02,-0.65,0.97
12.067283153533936,0.51,-0.03,-0.61,0.79
12.077545166015625,2.96,0.26,-0.9,3.1
12.088868141174316,2.46,1.15,-0.97,2.88
12.097797155380249,7.23,3.41,-1.14,8.07
12.107800960540771,0.05,1.61,1.63,2.29
12.118836164474487,-4.37,-2.3,1.38,5.12
12.128022193908691,-2.55,-2.42,0.24,3.52
12.142073154449463,-1.34,0.26,1.45,1.99
12.148077011108398,-1.87,-0.57,0.1,1.95
12.158162117004395,-1.55,-0.79,-0.62,1.84
12.168320178985596,-0.49,-0.15,0.01,0.51
12.17835521697998,-0.25,-0.39,-0.71,0.84
12.189649105072021,-0.53,-0.66,-1.46,1.68
12.198444128036499,-0.11,-0.17,-0.14,0.24
12.208913087844849,0.39,-0.16,0.49,0.64
12.219769954681396,0.55,0.24,1.15,1.29
12.229036092758179,0.8,0.37,0.55,1.03
12.242407083511353,0.18,-0.02,-0.02,0.18
12.248814105987549,-0.25,0.0,-0.52,0.57
12.258924961090088,-0.7,-0.76,-1.1,1.5
12.269103050231934,-0.93,-0.86,-0.93,1.57
12.279167175292969,-1.02,-0.55,-0.15,1.16
12.290468215942383,-0.76,-0.26,0.86,1.17
12.29935908317566,0.25,0.8,0.89,1.22
12.309429168701172,0.53,0.84,1.25,1.59
12.324000120162964,0.34,0.4,-0.12,0.53
12.329488277435303,0.72,0.24,-0.07,0.76
12.340734958648682,0.78,0.4,0.3,0.92
12.350069999694824,0.76,0.53,0.38,1.0
12.359779119491577,0.72,0.2,0.22,0.77
12.369956016540527,0.42,0.18,0.1,0.46
12.379981994628906,0.25,0.4,-0.04,0.47
12.391453266143799,0.33,0.48,0.13,0.59
12.400603294372559,-0.05,0.31,0.17,0.35
12.41018009185791,-0.45,0.19,0.38,0.61
12.424504280090332,-0.47,0.12,0.85,0.97
12.430477142333984,-0.72,-0.07,0.84,1.1
12.441704273223877,-0.87,-0.32,0.46,1.03
12.450695991516113,-0.66,-0.6,-0.51,1.02
12.460675239562988,-0.45,-0.55,-0.72,1.01
12.470788955688477,-0.3,0.4,1.04,1.15
12.480815172195435,-0.38,-0.13,-0.21,0.45
12.49233627319336,0.8,-0.28,-1.76,1.95
12.500846147537231,1.44,-0.13,-1.23,1.89
12.511147022247314,1.3,0.73,-0.06,1.49
12.52491807937622,0.75,0.45,0.9,1.25
12.531285285949707,-0.09,-0.11,0.3,0.33
12.542554140090942,-0.43,-0.15,-0.02,0.45
12.551297187805176,-0.07,-0.35,0.38,0.52
12.561413288116455,0.35,-0.15,0.69,0.78
12.571568012237549,0.53,0.08,0.51,0.73
12.581745147705078,0.49,0.16,0.2,0.55
12.593155145645142,0.34,0.2,-0.01,0.39
12.601706981658936,0.21,0.13,-0.02,0.24
12.61177396774292,0.19,0.11,0.34,0.4
12.62582516670227,0.18,0.01,0.73,0.75
12.631895065307617,0.22,0.02,0.06,0.22
12.643226146697998,0.4,0.19,0.2,0.48
12.65214729309082,0.55,0.31,-0.13,0.64
12.662175178527832,0.97,0.05,0.08,0.97
12.672327041625977,1.51,0.02,1.6,2.2
12.682376146316528,1.55,0.57,1.23,2.05
12.693780183792114,1.32,0.71,0.28,1.52
12.702453136444092,1.12,1.13,-0.12,1.59
12.713716983795166,1.25,1.77,-0.57,2.24
12.724943161010742,2.07,2.7,-1.04,3.55
12.73269009590149,3.29,2.69,-0.63,4.29
12.744073152542114,4.11,2.53,-0.66,4.87
12.752983093261719,4.6,2.81,-0.3,5.39
12.762907981872559,5.16,2.62,-0.07,5.78
12.773141145706177,5.72,1.47,1.91,6.2
12.783624172210693,6.12,1.06,2.68,6.76
12.794787168502808,6.38,2.0,2.24,7.05
12.80341100692749,6.42,1.11,3.75,7.51
12.814531087875366,5.84,-1.46,4.29,7.39
12.824666023254395,5.05,-2.4,3.29,6.48
12.833937168121338,4.07,-2.67,0.22,4.87
12.844906091690063,3.43,-2.84,-1.82,4.81
12.853837013244629,2.54,-3.76,-3.12,5.5
12.863718032836914,1.93,-4.23,-3.68,5.92
12.873985290527344,2.08,-4.39,-3.53,6.0
12.884063243865967,2.82,-4.19,-3.9,6.38
12.895586967468262,3.77,-4.04,-4.34,7.02
12.904269218444824,4.14,-4.0,-4.41,7.25
12.915486097335815,4.76,-3.74,-3.93,7.21
12.925835132598877,5.38,-3.21,-2.92,6.91
12.934305191040039,5.73,-2.49,-1.44,6.41
12.945810079574585,5.58,-1.97,-0.54,5.94
12.954755306243896,4.66,-1.87,-0.66,5.06
12.964690208435059,3.75,-1.85,-0.73,4.24
12.974842071533203,3.17,-1.76,-0.63,3.68
12.984904289245605,2.8,-1.77,-0.19,3.31
12.996339082717896,2.41,-1.86,0.33,3.06
13.005037069320679,2.05,-1.33,0.47,2.48
13.016385078430176,1.77,-0.32,0.01,1.79
13.026618003845215,1.41,0.43,-0.52,1.56
13.035198211669922,0.96,0.66,-0.68,1.34
13.046550273895264,0.35,0.63,-0.47,0.86
13.055461168289185,-0.45,0.75,-0.14,0.88
13.065531253814697,-1.61,0.72,0.09,1.76
13.075651168823242,-3.3,0.55,0.63,3.4
13.08576512336731,-4.76,0.5,0.89,4.86
13.097371101379395,-5.53,0.59,0.52,5.58
13.105940103530884,-5.67,1.01,0.16,5.76
13.11596417427063,-5.21,1.68,-0.12,5.47
13.126188278198242,-4.81,1.45,0.44,5.04
13.136147022247314,-4.48,0.9,1.81,4.91
13.14732813835144,-4.07,1.07,3.23,5.3
13.156376123428345,-3.67,1.78,3.54,5.4
13.166263103485107,-3.25,1.79,3.35,4.99
13.176473140716553,-2.6,1.38,2.62,3.94
13.186487197875977,-1.74,1.64,2.08,3.16
13.198179244995117,-1.09,2.25,1.9,3.14
13.206846237182617,-1.0,2.59,2.19,3.53
13.224846124649048,-1.67,2.41,2.37,3.77
13.226983070373535,-2.84,2.12,2.44,4.3
13.236885070800781,-2.79,4.4,0.17,5.21
13.248112201690674,-0.96,5.8,-1.4,6.04
13.257091045379639,-0.83,-0.91,2.58,2.85
13.267335176467896,-1.1,5.11,-1.4,5.41
13.277302265167236,-3.74,11.29,-4.04,12.56
13.287420272827148,-6.88,3.18,0.0,7.57
13.298891067504883,-7.46,-2.04,-1.98,7.98
13.307504177093506,-5.71,-1.37,-3.26,6.71
13.324908256530762,-5.45,4.69,-2.23,7.52
13.32746696472168,-9.11,5.79,-2.08,10.99
13.33775520324707,-8.14,-5.12,-4.08,10.44
13.348972082138062,-6.8,-4.16,-1.05,8.04
13.357936143875122,-4.3,0.34,4.17,5.99
13.367776155471802,-2.67,-1.33,-1.47,3.32
13.37805700302124,0.84,-1.44,3.79,4.14
13.388081073760986,6.27,-0.05,16.24,17.4
13.399433135986328,6.87,1.92,5.96,9.29
13.408263206481934,3.02,1.56,-0.74,3.47
13.424160957336426,-0.05,-0.08,-2.09,2.09
13.428356170654297,-1.84,0.29,-6.21,6.48
13.438557147979736,-2.93,0.18,-6.06,6.73
13.449600219726562,-3.33,-0.88,-5.49,6.48
13.458670139312744,-2.68,-0.83,-4.33,5.15
13.468897104263306,-1.16,-0.56,-2.38,2.7
13.478754997253418,1.46,-0.15,2.95,3.29
13.488829135894775,4.97,1.11,11.34,12.43
13.500754117965698,4.24,1.82,7.08,8.45
13.510048151016235,0.9,0.65,1.18,1.62
13.524007081985474,-0.41,-0.75,-2.41,2.55
13.529009103775024,-0.83,0.1,-3.75,3.84
13.539396286010742,-0.29,0.53,-2.23,2.31
13.551046133041382,0.63,0.34,-0.91,1.15
13.55956506729126,1.39,0.42,0.78,1.64
13.569553136825562,1.68,0.51,1.39,2.23
13.57965898513794,1.29,0.29,0.57,1.43
13.589658260345459,0.72,-0.1,-0.36,0.81
13.601824283599854,0.41,-0.11,-0.63,0.75
13.611184120178223,0.21,-0.01,-0.1,0.23
13.62602424621582,0.09,-0.02,0.27,0.28
13.62992811203003,0.14,-0.16,0.43,0.47
13.640207290649414,-0.05,-0.17,-0.09,0.19
13.651904106140137,0.0,0.08,-0.24,0.25
13.660346984863281,-0.2,0.07,-0.6,0.63
13.670358180999756,0.07,-0.08,-0.02,0.1
13.680482149124146,0.35,-0.03,0.22,0.41
13.690540075302124,0.15,0.25,-0.62,0.68
13.702367305755615,0.18,0.65,-0.72,0.98
13.71213412284851,0.37,0.56,-0.44,0.8
13.727668285369873,0.45,0.4,-0.36,0.7
13.730741024017334,0.45,0.48,-0.29,0.71
13.740880012512207,0.47,0.33,-0.29,0.64
13.7520170211792,0.55,0.26,-0.36,0.7
13.761190176010132,0.7,0.33,-0.26,0.81
13.771127223968506,0.74,0.33,-0.49,0.94
13.78130316734314,1.09,0.75,-0.39,1.37
13.791393280029297,1.3,1.02,-0.52,1.73
13.80265212059021,1.18,1.1,-1.26,2.04
13.813029289245605,0.97,1.2,-1.41,2.09
13.828233242034912,0.67,1.01,-1.06,1.61
13.831640243530273,0.52,0.72,-0.34,0.95
13.841750144958496,0.8,0.78,0.01,1.11
13.853033065795898,1.07,1.07,-0.88,1.75
13.861871242523193,1.16,1.38,-1.23,2.18
13.871998071670532,1.23,1.41,-0.57,1.95
13.882116079330444,1.32,1.06,0.06,1.69
13.892239093780518,1.33,0.88,0.18,1.6
13.903831005096436,1.19,0.98,-0.02,1.54
13.912399291992188,1.09,1.2,-0.22,1.63
13.927317142486572,1.24,1.44,-0.34,1.93
13.932316303253174,1.62,1.77,-0.55,2.46
13.942515134811401,2.01,2.13,-0.84,3.04
13.953882217407227,2.55,2.55,-1.15,3.78
13.96260118484497,2.98,3.26,-1.55,4.68
13.972718238830566,3.05,4.77,-2.08,6.03
13.982792139053345,3.18,6.43,-1.98,7.44
13.992833137512207,3.5,7.97,-1.63,8.85
14.004508972167969,4.09,10.6,-1.28,11.43
14.013836145401001,5.05,13.16,-1.18,14.14
14.028478145599365,6.83,15.67,-3.34,17.41
14.033911228179932,9.3,16.75,-4.74,19.73
14.04394817352295,11.44,13.74,-4.33,18.39
14.054632186889648,13.34,12.35,-4.98,18.84
14.063578128814697,13.58,9.95,-1.31,16.88
14.073694229125977,12.28,3.75,1.4,12.91
14.084033012390137,11.5,1.2,4.06,12.25
14.093739986419678,10.07,-1.37,3.55,10.76
14.105093955993652,7.12,-9.09,-0.47,11.55
14.113899230957031,5.6,-11.3,-0.72,12.63
14.128239154815674,4.57,-11.58,-4.27,13.16
14.134066104888916,5.75,-5.72,-4.57,9.3
14.144256114959717,7.14,-2.21,-3.35,8.19
14.155566215515137,6.91,-4.07,-4.06,8.98
14.164337158203125,6.95,-4.28,-3.28,8.79
14.174322128295898,6.73,-5.08,-4.16,9.4
14.184298038482666,6.66,-5.24,-5.73,10.22
14.194607257843018,6.85,-4.54,-5.01,9.62
14.206181049346924,6.79,-4.26,-3.41,8.71
14.214861154556274,6.14,-4.18,-2.62,7.87
14.22898817062378,5.02,-3.97,-2.55,6.88
14.234735012054443,3.85,-3.44,-2.85,5.89
14.244975090026855,2.74,-2.58,-3.09,4.86
14.256380081176758,1.84,-1.72,-2.64,3.64
14.265161037445068,1.57,-1.52,-1.62,2.72
14.275200128555298,2.29,-1.9,-0.53,3.02
14.285426139831543,3.64,-1.55,0.73,4.02
14.295360088348389,4.91,-0.45,1.48,5.14
14.308356285095215,5.51,0.67,0.76,5.6
14.315550088882446,5.15,1.77,-0.07,5.44
14.329922199249268,3.43,2.11,-0.62,4.07
14.335684299468994,1.12,2.16,-0.85,2.57
14.345824241638184,-0.73,2.43,-0.58,2.6
14.357131958007812,-1.9,2.51,-0.28,3.16
14.366019248962402,-2.3,2.4,-0.23,3.33
14.37607717514038,-1.74,2.6,-0.09,3.12
14.386291027069092,-0.87,2.88,-0.15,3.01
14.396224975585938,-0.21,3.06,-0.1,3.06
14.409090042114258,0.34,3.21,0.55,3.27
14.41649317741394,0.86,3.31,1.46,3.71
14.431339263916016,1.54,3.7,2.19,4.56
14.436520099639893,2.25,4.57,2.75,5.78
14.446668148040771,2.72,5.61,3.38,7.09
14.45800495147705,2.69,6.63,4.15,8.27
14.467209100723267,2.11,7.61,4.62,9.14
14.476962089538574,0.84,8.01,4.49,9.22
14.486947059631348,-0.54,8.12,4.48,9.28
14.496992111206055,-2.24,7.51,4.38,8.97
14.509756088256836,-5.09,6.21,4.43,9.17
14.524717092514038,-8.37,5.89,5.78,11.75
14.531311988830566,-10.71,5.25,6.12,13.4
14.537283182144165,-12.11,3.98,4.26,13.44
14.547378063201904,-12.89,3.56,4.07,13.97
14.55879807472229,-13.28,3.21,4.11,14.26
14.567405223846436,-13.46,2.39,3.53,14.11
14.577593088150024,-13.51,1.0,2.77,13.82
14.587757110595703,-13.55,-0.56,1.68,13.66
14.597839117050171,-13.65,-2.02,1.57,13.88
14.610279083251953,-14.03,0.85,1.58,14.14
14.624199151992798,-8.67,5.25,2.4,10.41
14.630165100097656,-3.44,-0.78,6.63,7.5
14.638037204742432,-2.78,4.76,3.5,6.52
14.648187160491943,-0.27,5.22,-1.3,5.38
14.659523010253906,2.2,4.22,-5.74,7.45
14.668385982513428,3.1,4.65,-3.03,6.35
14.67834997177124,2.83,3.15,-0.44,4.25
14.688566207885742,3.14,3.33,-6.67,8.08
14.69857120513916,1.78,8.02,-9.47,12.53
14.710095167160034,-4.84,9.17,-4.33,11.23
14.724691152572632,-10.43,1.66,9.68,14.32
14.730799198150635,-10.29,-6.6,9.63,15.56
14.738937139511108,-10.6,-4.86,2.23,11.87
14.748934268951416,-10.72,-2.8,2.44,11.34
14.760189056396484,-8.52,-3.21,2.96,9.57
14.769127130508423,-5.26,-1.77,4.07,6.88
14.7792329788208,-3.41,-1.09,0.28,3.59
14.789367198944092,-3.61,-1.19,-3.87,5.42
14.799540042877197,-3.57,-1.01,-2.9,4.7
14.810818195343018,-2.55,-0.65,-1.03,2.82
14.824847221374512,-0.27,0.37,0.18,0.49
14.831473112106323,2.44,1.37,2.7,3.88
14.839733123779297,3.79,0.94,3.15,5.01
14.849756240844727,3.71,0.11,1.24,3.91
14.861324071884155,2.7,-0.41,-0.11,2.73
14.870119094848633,1.96,0.84,-0.56,2.2
14.880149126052856,1.6,1.14,0.34,1.99
14.890281200408936,1.12,0.36,0.61,1.32
14.900811195373535,0.51,0.14,0.36,0.63
14.911725044250488,0.05,-0.04,0.15,0.16
14.92490005493164,-0.05,-0.22,0.34,0.4
14.93156623840332,-0.02,-0.3,0.46,0.54
14.940587043762207,0.03,-0.23,0.11,0.25
14.950704097747803,0.08,0.02,-0.24,0.25
14.961971282958984,0.24,0.03,-0.03,0.24
14.97089409828186,0.43,-0.06,0.34,0.55
14.98084020614624,0.37,0.01,0.03,0.37
14.991154193878174,0.35,0.1,-0.31,0.47
15.000990152359009,0.53,0.17,-0.22,0.59
15.012537956237793,0.63,0.26,-0.15,0.69
15.025314092636108,0.64,0.39,-0.39,0.84
15.032316207885742,0.76,0.39,-0.39,0.93
15.04133415222168,0.83,0.37,-0.16,0.92
15.05146312713623,0.79,0.41,-0.01,0.89
15.062857151031494,0.65,0.23,-0.23,0.72
15.071729183197021,0.7,0.23,-0.1,0.74
15.081865072250366,0.77,0.22,0.05,0.8
15.091734170913696,0.6,0.19,-0.22,0.66
15.103178024291992,0.32,0.3,-0.7,0.82
15.113348960876465,0.27,0.7,-0.79,1.08
15.124690055847168,0.3,0.79,-0.53,0.99
15.132058143615723,0.44,0.62,-0.21,0.78
15.14224100112915,0.68,0.54,-0.06,0.87
15.152326107025146,0.89,0.76,-0.05,1.17
15.1635422706604,1.03,0.96,-0.33,1.44
15.172499179840088,0.95,1.04,-1.0,1.72
15.182640075683594,0.69,1.44,-1.57,2.23
15.192614078521729,0.78,1.9,-1.26,2.4
15.20412302017212,1.2,1.84,-0.83,2.34
15.2141752243042,1.57,1.84,-0.61,2.49
15.224555015563965,1.94,1.93,-0.02,2.73
15.232845306396484,2.22,2.11,0.64,3.12
15.242979049682617,2.45,2.15,0.74,3.34
15.25311803817749,2.63,2.21,0.19,3.44
15.264387130737305,2.76,2.58,-0.41,3.8
15.273244142532349,2.73,3.46,-1.11,4.54
15.283102989196777,2.93,4.39,-1.38,5.45
15.293310165405273,3.56,5.1,-1.09,6.31
15.30484414100647,4.25,6.0,-0.9,7.4
15.314915180206299,4.52,7.19,-1.58,8.63
15.324772119522095,4.23,8.65,-3.47,10.23
15.334026098251343,3.81,10.77,-4.04,12.11
15.344380140304565,3.07,13.02,-3.6,13.85
15.354487180709839,3.96,15.49,-2.03,16.11
15.36556625366211,6.44,15.14,0.23,16.45
15.374626159667969,10.38,12.12,0.29,15.96
15.384011268615723,13.91,12.68,-2.49,18.98
15.394318103790283,16.5,11.15,-2.98,20.13
15.405436992645264,16.61,7.74,-0.68,18.33
15.415874004364014,14.8,4.46,0.68,15.47
15.424368143081665,12.99,0.62,0.5,13.01
15.43429708480835,9.89,-5.62,-1.33,11.45
15.444478988647461,6.82,-9.67,1.84,11.97
15.454485177993774,5.58,-10.35,0.59,11.77
15.465750217437744,3.94,-10.73,-5.18,12.54
15.474767208099365,3.08,-7.85,-4.34,9.48
15.4848051071167,2.96,-4.71,-1.18,5.68
15.494968175888062,3.12,-2.73,-1.39,4.37
15.50766897201538,4.04,-2.32,-2.61,5.34
15.516420125961304,5.36,-3.52,-2.91,7.04
15.52511215209961,5.87,-4.82,-3.22,8.24
15.53527021408081,5.85,-5.37,-3.59,8.71
15.545371055603027,5.59,-4.92,-3.38,8.17
15.555578231811523,5.02,-3.94,-2.59,6.88
15.567155122756958,4.18,-3.04,-1.8,5.47
15.575819969177246,3.08,-2.71,-1.51,4.37
15.585846185684204,2.17,-2.88,-1.87,4.06
15.595952033996582,1.9,-3.17,-2.01,4.2
15.605967044830322,2.43,-2.87,-1.49,4.04
15.624995231628418,3.27,-2.05,-0.85,3.95
15.627095222473145,3.98,-1.32,-0.23,4.19
15.636247158050537,4.26,-0.61,0.76,4.37
15.646231174468994,3.77,-0.01,1.6,4.09
15.656447172164917,2.46,0.21,1.52,2.89
15.66790509223938,0.92,0.34,0.72,1.21
15.676505088806152,-0.2,0.88,0.04,0.9
15.686683177947998,-0.9,1.51,-0.39,1.8
15.69660210609436,-1.37,2.12,-0.48,2.56
15.706727981567383,-1.83,2.65,-0.28,3.23
15.726037979125977,-2.21,3.24,0.02,3.92
15.728009223937988,-2.34,3.8,0.4,4.48
15.736931085586548,-2.27,4.35,0.68,4.95
15.746994018554688,-2.13,4.73,0.9,5.26
15.757176160812378,-2.04,5.45,0.69,5.86
15.768720149993896,-1.94,6.14,0.47,6.45
15.777379035949707,-1.85,6.1,0.67,6.4
15.78739595413208,-2.01,5.56,1.19,6.03
15.797516107559204,-2.6,5.18,0.98,5.87
15.807537078857422,-3.75,4.62,-0.19,5.95
15.826272964477539,-5.4,3.87,-1.5,6.81
15.828258991241455,-7.05,3.56,-2.69,8.34
15.83784008026123,-8.4,3.47,-3.53,9.74
15.847854137420654,-9.38,3.05,-4.29,10.75
15.858004093170166,-10.14,2.64,-4.36,11.34
15.869040966033936,-10.7,2.19,-3.73,11.54
15.8782320022583,-11.01,2.25,-3.25,11.69
15.88825511932373,-11.28,2.64,-2.84,11.92
15.899733066558838,-11.48,2.77,-2.05,11.98
15.908908128738403,-11.47,1.96,-1.72,11.76
15.91952109336853,-11.21,0.62,-2.01,11.4
15.928498268127441,-10.52,-0.14,-1.76,10.66
15.938613176345825,-9.67,-0.01,-0.81,9.7
15.948970079421997,-8.9,0.54,-0.02,8.91
15.958791255950928,-8.32,0.71,0.21,8.35
15.970093250274658,-8.21,1.4,-0.53,8.34
15.978971004486084,-6.14,13.53,-2.6,15.08
15.988976955413818,0.42,1.33,8.2,8.31
16.007259130477905,2.19,-5.03,12.12,13.3
16.00924301147461,2.82,-2.71,0.05,3.91
16.020487070083618,5.36,0.86,-4.96,7.35
16.029248237609863,6.77,4.4,0.45,8.08
16.039369106292725,5.95,5.73,-1.82,8.45
16.049376964569092,4.71,5.63,-4.7,8.71
16.059693098068237,2.91,6.61,-2.37,7.6
16.070924282073975,0.28,7.06,1.63,7.25
16.079730987548828,-3.89,6.25,2.28,7.7
16.089756965637207,-7.53,0.57,-1.78,7.75
16.10805320739746,-8.05,-2.78,-1.22,8.6
16.110079288482666,-8.57,-4.11,0.83,9.54
16.1211941242218,-8.23,-1.89,1.94,8.66
16.130115032196045,-6.47,-1.07,3.19,7.29
16.14018726348877,-4.23,-1.02,5.85,7.29
16.150535106658936,-2.78,-1.04,2.81,4.08
16.16044521331787,-2.47,-0.26,-0.62,2.55
16.171595096588135,-2.08,-0.2,-2.08,2.94
16.18055820465088,-1.04,-0.19,-2.86,3.04
16.190627098083496,0.63,0.31,-0.96,1.18
16.20217514038086,2.55,0.57,2.56,3.65
16.2109112739563,2.94,0.47,2.88,4.14
16.22548198699951,1.79,0.41,0.54,1.91
16.230953216552734,0.48,0.33,-0.85,1.03
16.241080284118652,-0.08,0.16,-0.99,1.0
16.250909090042114,0.28,0.24,0.69,0.78
16.261168956756592,0.7,-0.1,1.77,1.9
16.272699117660522,0.49,-0.34,1.13,1.27
16.281352043151855,0.03,-0.14,0.19,0.23
16.29145097732544,-0.3,-0.03,-0.45,0.54
16.307661056518555,-0.38,0.07,-0.56,0.68
16.311535120010376,-0.29,0.04,-0.25,0.38
16.323033094406128,-0.03,-0.09,0.2,0.22
16.3317711353302,0.22,-0.09,0.41,0.47
16.341920137405396,0.24,-0.07,0.29,0.38
16.351969242095947,0.12,-0.1,-0.12,0.19
16.362024307250977,0.01,-0.17,-0.15,0.22
16.373566150665283,-0.1,-0.19,-0.01,0.21
16.38239097595215,-0.09,-0.16,0.13,0.22
16.392276287078857,0.06,-0.05,0.13,0.15
16.40812110900879,0.3,0.1,0.05,0.32
16.412353038787842,0.45,0.29,-0.21,0.57
16.42392921447754,0.65,0.3,-0.33,0.78
16.43251609802246,0.94,0.31,-0.14,0.99
16.442674160003662,1.12,0.29,0.0,1.15
16.452821254730225,1.17,0.27,0.11,1.2
16.462903022766113,1.13,0.25,0.04,1.15
16.474233150482178,1.14,0.23,-0.03,1.16
16.482985019683838,1.08,0.31,-0.12,1.13
16.49312400817871,0.95,0.34,-0.28,1.04
16.507944107055664,0.89,0.37,-0.27,1.0
16.513209104537964,0.85,0.33,-0.06,0.91
16.524596214294434,1.0,0.25,0.4,1.1
16.53385019302368,1.15,0.28,0.37,1.24
16.543519020080566,1.16,0.29,0.13,1.2
16.55364418029785,1.11,0.37,-0.27,1.2
16.563635110855103,1.2,0.52,-0.44,1.37
16.57513427734375,1.28,0.58,-0.47,1.48
16.584266185760498,1.24,0.54,-0.63,1.49
16.593852043151855,1.26,0.69,-0.99,1.74
16.60746717453003,1.22,1.1,-1.2,2.03
16.613924980163574,1.55,1.34,-0.89,2.23
16.625277996063232,1.73,1.51,-0.83,2.44
16.63432502746582,1.76,1.67,-0.81,2.55
16.644302129745483,1.56,2.19,-0.84,2.81
16.65437602996826,1.69,2.88,-0.09,3.34
16.664438247680664,2.6,3.01,1.29,4.18
16.675831079483032,2.55,3.92,-0.21,4.68
16.68466329574585,1.92,5.67,-2.28,6.4
16.69597625732422,2.27,6.96,-2.11,7.61
16.707824230194092,3.52,7.15,-0.71,8.0
16.714827060699463,4.57,7.84,-0.36,9.08
16.72611117362976,4.86,9.2,-1.15,10.46
16.734864234924316,4.78,10.77,-1.79,11.91
16.745687007904053,6.11,12.66,-3.99,14.61
16.7557692527771,11.34,12.98,-4.07,17.7
16.765274047851562,14.62,11.42,-1.12,18.58
16.77650499343872,16.3,9.17,0.13,18.7
16.78548002243042,17.1,7.98,1.47,18.92
16.796643257141113,14.3,3.94,5.27,15.74
16.807228088378906,10.87,-0.35,6.72,12.78
16.81557321548462,8.21,-4.4,2.78,9.72
16.82693910598755,6.16,-8.44,-2.2,10.67
16.83574414253235,5.99,-7.52,-3.78,10.33
16.845829010009766,4.74,-8.53,-6.61,11.78
16.85596799850464,3.9,-7.09,-7.41,10.97
16.866164207458496,2.57,-3.93,-2.3,5.22
16.87739324569702,1.88,-2.69,2.64,4.21
16.886380195617676,3.3,-5.17,2.9,6.78
16.897552013397217,4.34,-7.05,-0.29,8.28
16.90718698501587,5.48,-7.82,-2.04,9.76
16.916335105895996,6.68,-7.45,-1.68,10.14
16.927725076675415,7.61,-6.27,-2.09,10.07
16.936635971069336,8.61,-5.28,-2.65,10.44
16.946712970733643,9.64,-4.3,-2.03,10.74
16.956892013549805,9.92,-3.52,-1.32,10.6
16.967366218566895,9.46,-2.83,-1.62,10.0
16.978145122528076,8.19,-2.33,-2.29,8.81
16.987112045288086,6.28,-2.1,-2.09,6.94
16.99844717979431,4.7,-1.56,-1.21,5.09
17.00748920440674,3.55,-0.22,-0.89,3.66
17.017593145370483,2.5,1.31,-0.81,2.93
17.028732299804688,1.54,1.62,-0.27,2.25
17.037424087524414,0.86,1.16,-0.28,1.47
17.04752826690674,0.42,1.5,-0.67,1.69
17.05771827697754,-0.02,2.17,-1.2,2.47
17.067851066589355,-0.45,3.25,-1.88,3.78
17.079174041748047,-0.77,4.16,-2.04,4.69
17.088004112243652,-1.08,4.76,-1.46,5.09
17.09787917137146,-1.54,5.03,-0.33,5.27
17.107900142669678,-2.11,5.12,0.99,5.62
17.118072032928467,-2.61,5.53,1.99,6.43
17.12952709197998,-2.86,6.3,2.94,7.51
17.138267993927002,-3.05,6.98,3.84,8.53
17.14835810661316,-3.53,6.55,4.35,8.61
17.158480167388916,-4.89,4.77,4.47,8.16
17.168580055236816,-6.72,3.05,4.6,8.69
17.179989099502563,-8.24,2.37,3.68,9.33
17.18876314163208,-9.36,2.53,2.28,9.96
17.19883108139038,-10.26,2.86,1.36,10.73
17.208901166915894,-10.96,3.37,1.16,11.52
17.218937158584595,-11.46,3.46,1.18,12.02
17.23015809059143,-11.76,2.98,1.0,12.17
17.239174127578735,-11.86,2.13,0.58,12.06
17.249221086502075,-11.84,1.3,-0.09,11.91
17.259325981140137,-11.94,0.37,0.1,11.94
17.26935625076294,-12.09,-0.99,1.26,12.19
17.28095817565918,-12.26,-2.3,2.7,12.76
17.28957509994507,-12.11,-2.69,3.65,12.93
17.29961609840393,-12.44,0.2,3.18,12.84
17.309560298919678,-10.86,15.82,2.33,19.32
17.31982707977295,1.91,7.62,5.89,9.81
17.331085205078125,5.72,3.4,3.8,7.66
17.33987522125244,3.86,0.33,-1.5,4.15
17.34990119934082,3.87,-0.93,-2.75,4.83
17.36018419265747,4.45,-0.14,-2.44,5.07
17.370334148406982,5.26,1.81,-5.92,8.12
17.381720066070557,5.32,3.27,-6.45,8.97
17.390501976013184,4.35,5.33,-5.55,8.83
17.407453060150146,1.17,3.59,-6.86,7.83
17.410637140274048,-5.62,4.24,1.37,7.17
17.420653104782104,-8.93,-0.34,13.65,16.31
17.43204927444458,-8.09,-7.63,8.46,13.97
17.44069004058838,-8.91,-4.43,1.02,10.0
17.450993061065674,-9.4,-2.02,0.88,9.65
17.460875034332275,-6.94,-1.48,2.19,7.42
17.47098207473755,-4.16,-1.35,4.37,6.18
17.48238229751587,-2.32,-1.0,2.86,3.81
17.492626190185547,-2.52,-0.7,-1.89,3.22
17.50789499282837,-3.54,-0.97,-5.37,6.5
17.51116418838501,-3.1,-1.2,-4.21,5.36
17.521374225616455,-1.44,-0.73,-0.62,1.72
17.53279209136963,1.13,0.84,1.82,2.3
17.54151201248169,3.54,2.01,2.0,4.53
17.551605224609375,4.73,1.3,1.22,5.05
17.561641216278076,4.45,0.22,-0.19,4.45
17.571839094161987,3.77,0.16,-1.09,3.92
17.58330011367798,3.54,0.92,-0.39,3.67
17.59340810775757,3.59,1.42,0.37,3.87
17.60740327835083,3.28,0.96,0.9,3.53
17.612085103988647,1.83,0.62,0.37,1.96
17.622251987457275,0.38,0.13,-0.44,0.59
17.63396716117859,-0.32,0.38,-0.08,0.5
17.642534255981445,-1.16,0.94,0.65,1.62
17.652525186538696,-2.04,-0.22,-0.23,2.06
17.66251802444458,-1.92,-0.88,0.06,2.11
17.672616004943848,-1.26,-0.64,0.52,1.5
17.684324264526367,-0.56,-0.38,0.22,0.71
17.694144248962402,0.08,-0.19,0.27,0.33
17.708992958068848,0.55,-0.06,0.36,0.66
17.71291708946228,0.87,-0.03,0.1,0.87
17.723042011260986,1.07,-0.05,-0.15,1.08
17.73463010787964,1.14,0.02,-0.08,1.14
17.743158102035522,0.9,0.0,-0.12,0.9
17.753255128860474,0.45,-0.75,-0.1,0.88
17.763365268707275,0.16,-1.12,-0.03,1.13
17.773357152938843,0.12,-0.31,-0.33,0.46
17.785107135772705,0.31,0.27,-0.69,0.8
17.795039176940918,0.61,0.62,-0.81,1.18
17.80944299697876,0.71,1.09,-1.13,1.72
17.813566207885742,0.79,1.05,-1.54,2.02
17.823668003082275,0.93,0.7,-0.93,1.48
17.83559513092041,1.28,0.66,-0.03,1.44
17.843894004821777,1.55,0.51,0.0,1.63
17.853997230529785,1.57,0.35,-0.52,1.69
17.864120960235596,1.49,0.53,-0.9,1.81
17.874306201934814,1.34,0.96,-0.8,1.83
17.885639190673828,1.2,0.89,-0.02,1.49
17.894498109817505,0.99,0.68,-0.49,1.29
17.9087872505188,1.04,0.35,-0.4,1.16
17.914402961730957,1.11,-0.38,0.46,1.26
17.924626111984253,0.61,-0.89,0.42,1.15
17.935779094696045,0.01,-1.17,-0.41,1.23
17.94481611251831,-0.26,-1.46,0.08,1.48
17.954869270324707,-0.81,-1.67,0.87,2.04
17.964855194091797,-1.58,-1.67,1.13,2.56
17.975107192993164,-1.96,-0.87,0.91,2.32
17.986350059509277,-1.23,0.36,0.75,1.48
17.99520206451416,-0.07,1.25,0.8,1.48
18.00936007499695,0.68,1.66,0.3,1.81
18.015281200408936,1.07,1.55,-0.16,1.89
18.025352954864502,1.41,0.98,0.76,1.87
18.03672695159912,1.37,0.34,1.69,2.2
18.04553508758545,0.76,0.09,1.06,1.3
18.055685997009277,0.47,0.84,0.81,1.25
18.06573510169983,0.55,2.0,0.9,2.26
18.075908184051514,0.91,3.53,0.65,3.7
18.087538242340088,1.33,5.53,-0.23,5.69
18.09614109992981,1.69,8.35,-0.5,8.53
18.111019134521484,1.86,11.64,0.45,11.79
18.116456031799316,2.03,14.26,-0.68,14.41
18.126537084579468,2.57,17.61,-1.65,17.87
18.13810110092163,4.52,18.67,0.39,19.21
18.146335124969482,6.71,14.76,1.57,16.28
18.156336307525635,7.92,12.02,-0.04,14.39
18.166354179382324,9.64,9.77,2.35,13.92
18.17664408683777,10.18,8.4,6.04,14.51
18.188004970550537,8.06,6.39,4.97,11.42
18.196930170059204,5.21,1.26,3.29,6.28
18.21010398864746,4.69,-3.46,3.41,6.75
18.217247009277344,5.98,-5.69,2.55,8.63
18.22705912590027,5.94,-5.98,-0.6,8.45
18.238267183303833,3.4,-2.27,-4.69,6.22
18.247128009796143,2.36,-0.34,-3.76,4.45
18.257174015045166,5.57,-0.93,0.8,5.7
18.267632961273193,7.25,-0.79,0.95,7.35
18.277424097061157,7.51,-0.92,-1.11,7.64
18.2900230884552,7.6,-1.33,-2.0,7.97
18.297622203826904,7.88,-2.01,-1.55,8.27
18.31090807914734,8.09,-2.31,-0.95,8.46
18.317581176757812,7.96,-2.06,-0.84,8.26
18.327818155288696,7.27,-1.96,-0.96,7.59
18.33909797668457,6.3,-2.0,-0.98,6.68
18.347970962524414,5.3,-1.92,-1.03,5.73
18.358103275299072,4.42,-1.77,-1.29,4.93
18.36790704727173,3.92,-1.58,-1.63,4.52
18.378265142440796,4.01,-1.43,-1.78,4.61
18.391160011291504,4.5,-1.33,-1.69,4.98
18.398427963256836,4.86,-1.16,-1.48,5.21
18.412318229675293,5.05,-0.83,-1.32,5.28
18.4184889793396,5.16,-0.72,-1.3,5.36
18.428500175476074,5.16,-0.82,-1.06,5.33
18.439985275268555,4.6,-0.93,-0.48,4.71
18.448912143707275,3.6,-0.68,0.13,3.66
18.45893430709839,2.55,-0.3,0.33,2.58
18.468959093093872,1.64,-0.04,-0.03,1.64
18.479076147079468,0.97,0.07,-0.61,1.14
18.49170207977295,0.5,0.16,-1.0,1.12
18.49934411048889,0.09,0.55,-1.07,1.2
18.514124155044556,-0.47,1.47,-1.01,1.84
18.519402027130127,-1.22,2.45,-0.93,2.89
18.529407024383545,-2.01,3.03,-0.49,3.66
18.540951251983643,-2.81,3.44,0.22,4.44
18.549664974212646,-3.36,3.78,0.88,5.13
18.55980610847473,-3.37,3.75,1.54,5.27
18.569876194000244,-2.99,3.85,2.25,5.36
18.5799560546875,-2.7,4.49,2.74,5.91
18.592944145202637,-2.8,5.37,2.64,6.6
18.608023166656494,-3.25,5.8,2.2,7.0
18.615005016326904,-3.93,6.49,1.68,7.77
18.620265007019043,-4.4,7.76,1.79,9.09
18.63032817840576,-4.41,7.98,2.55,9.46
18.64165711402893,-4.18,7.75,3.42,9.44
18.65077495574951,-4.32,7.46,3.8,9.42
18.660619258880615,-4.89,6.47,4.15,9.11
18.670623302459717,-5.77,3.78,3.6,7.78
18.68066906929016,-7.14,0.91,1.96,7.45
18.692049980163574,-8.64,0.36,-0.15,8.64
18.709086179733276,-9.71,-0.07,-1.1,9.77
18.715931177139282,-10.93,-0.94,-0.52,10.98
18.721116065979004,-11.41,-0.62,-0.24,11.42
18.731064081192017,-11.62,-0.22,-0.07,11.62
18.742533206939697,-11.77,-0.11,0.0,11.77
18.751080989837646,-13.81,1.82,-1.91,14.05
18.761300086975098,-13.75,11.27,-0.7,17.79
18.771414279937744,3.1,5.47,11.05,12.71
18.781509160995483,8.41,9.48,2.46,12.9
18.792696952819824,2.0,-0.73,-3.97,4.5
18.8081271648407,2.05,-1.79,-4.51,5.26
18.814369201660156,3.64,2.08,-6.64,7.85
18.82184910774231,4.74,6.27,-7.92,11.15
18.831849098205566,5.38,10.09,-8.47,14.23
18.843228101730347,4.44,11.82,-1.55,12.72
18.852116107940674,-2.43,7.86,6.66,10.58
18.86222815513611,-8.43,1.63,10.03,13.2
18.872281074523926,-9.4,-4.24,11.0,15.07
18.882373094558716,-9.67,-7.16,-0.5,12.04
18.893697261810303,-11.1,-5.52,0.73,12.41
18.908210277557373,-9.65,-1.32,-1.95,9.93
18.914627075195312,-7.09,-1.79,-1.97,7.57
18.922880172729492,-5.45,-2.94,0.83,6.24
18.932753086090088,-3.63,-1.0,2.02,4.27
18.944111108779907,-1.52,-0.48,2.12,2.65
18.952924251556396,-1.45,-0.19,0.05,1.46
18.96292018890381,-1.08,0.37,1.41,1.81
18.973003149032593,-0.33,-0.95,2.08,2.31
18.983118057250977,-0.66,-0.81,-0.51,1.16
18.994506120681763,-0.55,0.13,-0.37,0.67
19.00821614265442,0.33,0.43,1.68,1.76
19.014726161956787,0.79,0.08,1.72,1.89
19.023343086242676,0.78,-0.19,0.96,1.25
19.0333411693573,0.74,-0.01,1.1,1.32
19.044783115386963,0.48,0.05,0.74,0.88
19.053621292114258,0.24,-0.2,0.31,0.44
19.06368112564087,-0.33,-0.37,-0.25,0.55
19.073756217956543,-0.66,-0.11,-0.65,0.93
19.09265899658203,-0.22,0.18,-0.46,0.54
19.09684419631958,-0.08,0.11,-0.42,0.44
19.104053020477295,0.23,0.04,-0.33,0.4
19.114047050476074,0.4,-0.02,-0.2,0.44
19.124170303344727,0.59,0.09,0.2,0.62
19.13444423675537,0.6,-0.1,0.39,0.72
19.14547109603882,0.37,-0.17,0.54,0.67
19.15430498123169,0.03,-0.28,0.21,0.35
19.164637088775635,-0.66,-0.4,-0.78,1.09
19.17464518547058,-0.89,-0.5,-1.04,1.45
19.185872077941895,-0.34,0.34,-0.4,0.62
19.195955276489258,-0.15,0.65,-0.77,1.01
19.207869052886963,0.48,0.38,-1.03,1.19
19.214803218841553,1.18,0.48,0.08,1.27
19.225001096725464,1.8,0.45,0.63,1.95
19.2349271774292,2.06,0.53,0.2,2.13
19.24637508392334,1.97,0.78,-0.16,2.12
19.255340099334717,1.96,0.86,-0.27,2.15
19.26537799835205,2.01,0.93,-0.37,2.24
19.275482177734375,2.06,0.98,-0.69,2.38
19.286561012268066,2.01,1.19,-0.58,2.4
19.296780109405518,1.63,1.11,-0.26,1.98
19.3076810836792,1.08,1.33,-0.01,1.71
19.315535068511963,1.08,1.03,0.75,1.67
19.32589626312256,1.07,0.82,0.31,1.38
19.335925102233887,0.91,1.07,-0.42,1.46
19.347190141677856,0.65,1.61,-0.38,1.77
19.356096267700195,0.91,2.24,-0.32,2.43
19.36620306968689,1.34,2.59,-0.61,2.97
19.37634801864624,1.76,3.28,-1.27,3.93
19.387720108032227,2.24,3.91,-1.67,4.8
19.397823095321655,2.61,5.03,-2.01,6.01
19.408241271972656,2.8,6.87,-2.51,7.83
19.41641616821289,3.02,8.48,-2.41,9.31
19.426714181900024,3.28,9.61,-2.14,10.37
19.436774253845215,4.08,10.79,-1.86,11.68
19.448583126068115,4.51,13.65,-2.2,14.54
19.457512140274048,4.81,19.48,-2.25,20.19
19.467659950256348,6.37,25.16,-1.06,25.97
19.4775652885437,10.16,23.5,-1.21,25.63
19.490915298461914,15.27,16.87,-2.06,22.84
19.498191118240356,18.7,11.32,-1.11,21.88
19.507455110549927,18.79,6.16,1.81,19.85
19.51773500442505,15.08,-0.79,3.65,15.53
19.527437210083008,10.76,-8.24,0.3,13.55
19.537575244903564,8.19,-12.49,-0.5,14.94
19.548885107040405,7.68,-11.95,0.49,14.21
19.557756185531616,5.42,-14.78,-7.44,17.41
19.567788124084473,4.84,-14.95,-10.01,18.63
19.577876091003418,6.93,-10.65,-5.58,13.87
19.591265201568604,8.42,-6.65,-2.54,11.02
19.599066257476807,7.85,-7.45,-2.98,11.22
19.608153104782104,7.49,-8.02,-4.21,11.75
19.617906093597412,7.78,-7.13,-4.24,11.37
19.628319263458252,7.75,-6.58,-3.73,10.82
19.638399124145508,7.18,-6.17,-3.48,10.08
19.64975929260254,6.08,-5.88,-3.12,9.01
19.658491134643555,5.08,-5.42,-2.82,7.94
19.668607234954834,4.48,-4.81,-2.82,7.15
19.678627014160156,4.13,-4.03,-3.19,6.59
19.692151069641113,4.09,-3.09,-3.94,6.46
19.70007610321045,4.19,-1.59,-4.5,6.35
19.70888113975525,4.28,0.66,-4.55,6.28
19.719027042388916,4.18,3.2,-3.97,6.59
19.72905206680298,3.63,5.21,-2.79,6.93
19.739261150360107,1.58,4.97,-2.05,5.6
19.753098011016846,-1.03,4.05,-1.13,4.32
19.759448051452637,-2.94,3.7,0.05,4.72
19.76951813697815,-4.2,3.51,-0.39,5.48
19.77947425842285,-4.92,3.56,-1.14,6.17
19.789618015289307,-4.89,3.9,-0.35,6.26
19.80908513069153,-3.91,4.46,0.31,5.93
19.811195135116577,-2.37,5.61,0.67,6.12
19.81980323791504,-1.11,6.87,1.96,7.22
19.829901218414307,-0.6,7.78,3.14,8.41
19.83999514579773,-0.96,8.59,3.04,9.16
19.8519229888916,-2.51,8.54,1.82,9.08
19.860236167907715,-4.79,7.37,1.36,8.89
19.87040615081787,-6.26,5.91,1.24,8.69
19.881702184677124,-6.55,5.84,1.26,8.86
19.89079523086548,-6.19,6.9,1.94,9.47
19.902011156082153,-5.85,7.81,2.34,10.03
19.910527229309082,-6.24,7.53,2.77,10.16
19.920588970184326,-7.26,6.56,2.8,10.17
19.93062710762024,-8.2,5.41,1.11,9.88
19.940853118896484,-8.96,4.42,-0.58,10.0
19.952410221099854,-9.87,2.78,-2.41,10.53
19.961024284362793,-10.7,1.22,-3.96,11.47
19.970895290374756,-11.79,-0.06,-2.46,12.04
19.982375144958496,-12.93,-0.59,1.08,12.98
19.99119806289673,-13.57,0.17,2.28,13.76
20.00206422805786,-13.48,0.6,1.2,13.54
20.01136612892151,-13.63,-0.28,0.17,13.63
20.021263122558594,-15.36,8.37,-2.39,17.65
20.031501293182373,-0.17,8.05,-0.32,8.05
20.041567087173462,5.58,-0.76,8.17,9.92
20.05296015739441,2.24,-4.22,2.91,5.59
20.061707973480225,3.13,-2.99,-3.82,5.77
20.071887016296387,4.83,2.02,-6.5,8.34
20.083237171173096,6.41,9.13,-4.85,12.16
20.09900212287903,7.69,15.31,-5.37,17.95
20.10312008857727,6.99,15.55,-6.29,18.17
20.112139225006104,3.43,8.74,-2.68,9.76
20.122082233428955,-0.91,0.05,-0.83,1.23
20.132334232330322,-2.83,-2.51,1.08,3.93
20.14291214942932,-5.25,-3.22,11.54,13.08
20.153651237487793,-6.25,-2.39,12.1,13.82
20.16263723373413,-4.66,-1.78,3.16,5.9
20.172818183898926,-3.91,-1.12,3.09,5.1
20.1838481426239,-3.63,-1.07,0.47,3.81
20.194403171539307,-4.05,-1.36,-3.67,5.63
20.20414400100708,-4.7,-1.05,-3.65,6.04
20.212937116622925,-4.61,-0.99,0.38,4.73
20.222912073135376,-3.8,-1.26,2.98,4.99
20.232961177825928,-2.74,-0.91,2.14,3.59
20.24316120147705,-2.06,-0.65,0.14,2.16
20.25480818748474,-2.0,-0.46,0.04,2.05
20.263291120529175,-1.88,-0.57,0.27,1.98
20.27341604232788,-1.12,-0.77,0.35,1.4
20.283445119857788,0.09,-0.28,0.93,0.97
20.294259071350098,0.77,0.21,1.13,1.38
20.30509901046753,0.63,0.11,0.37,0.73
20.313765048980713,0.18,0.06,-0.36,0.4
20.323853969573975,0.15,0.2,-0.57,0.62
20.333971977233887,0.43,0.23,-0.36,0.6
20.34399914741516,0.83,0.18,0.08,0.85
20.355546951293945,1.07,0.33,0.14,1.12
20.364243030548096,0.83,0.3,-0.35,0.94
20.374341011047363,0.87,0.16,-0.49,1.01
20.384385108947754,1.14,0.21,0.02,1.15
20.394652128219604,1.2,0.21,0.2,1.23
20.406082153320312,1.17,0.03,0.04,1.17
20.414613246917725,0.93,0.0,-0.39,1.0
20.42472219467163,0.49,0.09,-0.71,0.86
20.434797286987305,0.2,0.18,-0.54,0.6
20.444830179214478,-0.02,0.13,-0.05,0.14
20.456665992736816,-0.27,0.0,-0.09,0.28
20.46493625640869,-0.31,-0.11,-0.26,0.41
20.47513508796692,0.06,-0.1,0.06,0.13
20.485005140304565,0.57,0.01,0.35,0.66
20.49522113800049,0.7,0.03,0.22,0.73
20.50652027130127,0.66,0.24,-0.04,0.7
20.51537013053894,0.8,0.26,-0.36,0.91
20.525350093841553,0.9,0.27,-0.36,1.0
20.535495281219482,1.1,0.67,-0.24,1.31
20.545629024505615,1.22,1.05,-0.53,1.69
20.55681610107422,1.28,1.5,-0.74,2.1
20.565749168395996,1.32,2.42,-1.02,2.93
20.57593011856079,2.04,2.14,-0.61,3.01
20.585875988006592,2.43,2.29,-0.64,3.39
20.596074104309082,2.41,3.25,-0.97,4.16
20.607157230377197,2.8,3.65,-0.62,4.64
20.61624002456665,3.32,3.23,-0.54,4.66
20.626410007476807,3.5,3.45,-0.75,4.97
20.636484146118164,3.48,3.53,-0.74,5.01
20.646531105041504,3.55,3.33,-0.49,4.89
20.657981157302856,3.71,3.35,-0.32,5.0
20.666630268096924,3.73,3.73,-0.67,5.31
20.67832899093628,3.5,4.68,-1.38,6.0
20.686959266662598,2.95,5.26,-2.12,6.39
20.697447299957275,2.63,5.81,-2.89,7.0
20.708184242248535,2.79,8.47,-3.56,9.6
20.71717596054077,3.06,13.08,-3.75,13.94
20.727758169174194,4.0,19.55,-1.33,19.99
20.737747192382812,8.62,24.23,1.93,25.78
20.74776601791382,14.79,18.84,0.43,23.95
20.758820056915283,17.01,14.37,-0.67,22.27
20.767415046691895,16.19,11.34,-1.41,19.81
20.778621196746826,16.59,7.17,-1.96,18.17
20.787598133087158,16.74,1.95,0.15,16.85
20.79768705368042,14.28,-6.03,0.19,15.5
20.808834075927734,10.97,-10.57,0.01,15.23
20.817914962768555,9.56,-10.72,-0.26,14.36
20.82798409461975,6.92,-13.76,-6.65,16.77
20.83849310874939,6.88,-11.55,-8.78,16.05
20.848204135894775,8.8,-5.32,-6.53,12.18
20.859596252441406,8.48,-4.36,-5.67,11.09
20.8683021068573,7.37,-5.5,-6.43,11.22
20.879631996154785,6.86,-5.37,-6.65,10.95
20.895737171173096,6.27,-5.55,-6.27,10.46
20.89857006072998,5.65,-5.79,-5.78,9.94
20.90998601913452,4.99,-5.83,-5.07,9.19
20.91878604888916,4.26,-5.63,-4.08,8.15
20.928800106048584,3.65,-5.31,-3.08,7.14
20.938823223114014,3.25,-5.07,-2.47,6.5
20.948897123336792,3.18,-4.62,-2.57,6.16
20.960174083709717,3.52,-3.49,-3.08,5.83
20.968971252441406,3.93,-2.19,-3.6,5.76
20.980318069458008,4.16,-0.9,-4.12,5.92
20.995678186416626,4.08,0.07,-4.33,5.94
20.999232292175293,3.76,0.7,-4.12,5.62
21.010457038879395,3.18,0.84,-3.71,4.95
21.019423961639404,2.41,0.92,-3.12,4.04
21.02945613861084,1.76,1.15,-2.53,3.28
21.03965997695923,1.16,1.82,-2.21,3.08
21.049702167510986,0.58,2.73,-2.17,3.53
21.06096601486206,-0.11,3.54,-2.2,4.16
21.069833278656006,-0.92,4.2,-1.69,4.61
21.079854011535645,-1.65,5.22,-0.81,5.53
21.09506916999817,-3.02,7.09,0.07,7.7
21.09997797012329,-5.01,8.08,1.6,9.64
21.111279010772705,-6.32,7.65,3.11,10.39
21.12021517753601,-6.71,6.95,3.77,10.37
21.13027000427246,-5.96,7.12,4.27,10.22
21.140438079833984,-4.16,8.13,4.05,9.99
21.150509119033813,-2.87,9.52,3.14,10.42
21.161879062652588,-2.51,10.18,2.78,10.84
21.17060899734497,-3.56,9.99,3.51,11.17
21.180699110031128,-6.03,8.26,4.73,11.26
21.19503927230835,-7.76,6.94,6.41,12.22
21.200785160064697,-8.04,7.05,7.06,12.81
21.212093114852905,-7.6,7.53,6.77,12.66
21.221079111099243,-7.3,6.87,4.98,11.19
21.231152057647705,-7.66,6.07,2.56,10.1
21.24134111404419,-8.09,4.73,0.52,9.38
21.251338005065918,-8.48,2.91,-1.08,9.03
21.26267719268799,-9.3,2.17,-2.36,9.83
21.271879196166992,-10.35,1.95,-3.32,11.04
21.28150224685669,-11.27,1.95,-2.48,11.7
21.295141220092773,-12.46,1.09,-1.18,12.56
21.301788091659546,-12.07,14.89,-4.28,19.63
21.313011169433594,-5.09,1.11,8.24,9.74
21.322107076644897,-1.59,-0.88,9.75,9.91
21.331940174102783,-0.61,0.08,-3.78,3.82
21.34213399887085,0.43,-0.29,-3.57,3.6
21.35218095779419,2.34,5.42,-1.49,6.08
21.36352300643921,4.54,10.41,-4.37,12.16
21.37224006652832,5.18,11.81,-10.03,16.33
21.382347106933594,4.17,11.05,-8.46,14.52
21.39489221572876,0.0,4.03,0.78,4.1
21.40252709388733,-4.94,-1.79,7.9,9.48
21.413733959197998,-7.2,-1.62,9.62,12.12
21.422667026519775,-8.81,-1.53,10.61,13.87
21.432765007019043,-8.06,-2.48,2.79,8.88
21.442971229553223,-7.59,-3.04,2.59,8.57
21.452913284301758,-7.87,-2.08,-0.01,8.14
21.46442222595215,-7.44,-2.18,-4.17,8.8
21.47452402114868,-5.56,-2.35,-2.31,6.46
21.48346710205078,-3.67,-2.08,2.45,4.87
21.49513530731201,-2.31,-0.92,3.89,4.61
21.503353118896484,-1.88,-0.38,1.01,2.16
21.514631271362305,-1.84,-0.9,0.19,2.05
21.523560047149658,-1.93,-0.53,0.4,2.04
21.53355121612549,-1.88,-0.22,0.06,1.89
21.543713092803955,-1.16,-0.47,0.45,1.33
21.55371618270874,0.02,-0.36,1.68,1.71
21.56504201889038,0.44,-0.02,1.36,1.42
21.575201988220215,0.43,0.15,0.31,0.55
21.583970069885254,0.48,0.25,0.09,0.54
21.59462308883667,0.55,0.25,-0.02,0.6
21.604111194610596,0.93,0.23,0.08,0.96
21.615326166152954,1.33,0.23,0.34,1.39
21.62435507774353,1.36,0.37,-0.07,1.41
21.634377002716064,1.1,0.54,-0.75,1.43
21.644450187683105,1.12,0.4,-0.8,1.43
21.654911994934082,1.44,0.41,0.08,1.49
21.665935039520264,1.63,0.35,0.54,1.75
21.67588520050049,1.54,0.19,0.38,1.59
21.68476629257202,1.24,0.11,0.23,1.26
21.694876194000244,0.69,-0.02,0.1,0.69
21.70540714263916,0.13,-0.21,-0.1,0.26
21.71619701385498,-0.29,-0.17,-0.48,0.58
21.725197076797485,-0.49,0.09,-0.91,1.03
21.73521900177002,-0.47,0.28,-1.14,1.26
21.745302200317383,-0.07,0.38,-0.61,0.72
21.755444049835205,0.68,0.22,0.25,0.75
21.766682147979736,1.11,0.01,0.2,1.12
21.776928186416626,1.13,0.06,0.05,1.13
21.78558921813965,1.22,0.26,0.37,1.3
21.795581102371216,1.0,0.06,0.39,1.07
21.805564165115356,0.6,0.03,0.07,0.6
21.817052125930786,0.2,0.15,-0.24,0.34
21.82600212097168,-0.07,0.13,-0.3,0.33
21.835975170135498,-0.07,0.14,-0.33,0.36
21.846243143081665,0.26,0.4,-0.48,0.67
21.856152057647705,0.47,0.77,-0.64,1.1
21.86766815185547,0.66,0.91,-0.74,1.34
21.880547046661377,0.9,1.01,-0.58,1.47
21.887481212615967,1.15,1.61,-0.19,1.98
21.896526098251343,1.49,2.0,0.07,2.49
21.90662407875061,1.84,2.04,-0.11,2.74
21.917909145355225,1.95,2.6,-0.48,3.28
21.92679500579834,2.14,3.24,-0.51,3.91
21.936845302581787,2.49,3.41,-0.52,4.25
21.947038173675537,2.85,3.42,-0.61,4.49
21.957146167755127,3.11,3.27,-0.71,4.56
21.968691110610962,3.15,3.51,-0.93,4.8
21.977360248565674,3.27,3.56,-1.05,4.94
21.98727321624756,3.46,3.66,-1.12,5.15
21.997199058532715,3.77,4.31,-1.28,5.86
22.00753617286682,4.14,5.54,-1.7,7.12
22.018671989440918,4.49,6.45,-1.91,8.08
22.02752113342285,4.8,8.47,-1.98,9.93
22.037574291229248,4.0,11.56,-2.93,12.57
22.048355102539062,2.44,16.28,-4.0,16.94
22.05848217010498,4.32,19.17,-1.78,19.73
22.069825172424316,9.12,18.84,0.76,20.94
22.0786190032959,13.03,18.88,-3.1,23.14
22.095059156417847,16.59,16.22,-3.47,23.45
22.098079204559326,17.6,12.83,-0.83,21.79
22.10823106765747,17.15,6.36,1.96,18.39
22.11944007873535,16.42,-0.93,1.33,16.5
22.128559112548828,14.7,-5.62,-0.81,15.75
22.13884210586548,12.3,-9.0,0.46,15.24
22.14868712425232,9.69,-12.39,-3.44,16.1
22.1586971282959,7.8,-11.33,-5.88,14.95
22.170281171798706,8.8,-5.83,-4.73,11.56
22.178779125213623,8.81,-4.22,-4.8,10.88
22.19528317451477,8.05,-5.02,-5.33,10.88
22.19899010658264,7.36,-5.77,-5.91,11.06
22.209007263183594,6.75,-6.55,-6.5,11.43
22.220317125320435,6.24,-6.72,-6.19,11.06
22.229275226593018,5.38,-6.95,-5.24,10.23
22.23917508125305,4.09,-7.19,-4.06,9.21
22.249401092529297,3.04,-7.11,-2.74,8.2
22.25955629348755,2.65,-6.75,-2.28,7.6
22.279322147369385,2.73,-6.39,-2.9,7.52
22.28125309944153,3.01,-5.72,-3.62,7.4
22.289507150650024,3.28,-4.64,-3.48,6.66
22.299743175506592,3.36,-3.59,-2.99,5.75
22.30996799468994,3.41,-2.33,-2.56,4.85
22.321694135665894,3.21,-1.37,-1.94,3.99
22.330120086669922,2.78,-1.01,-1.58,3.35
22.340142250061035,2.31,-0.52,-1.61,2.86
22.350229263305664,1.98,0.27,-1.73,2.64
22.360336303710938,1.73,1.5,-1.97,3.02
22.380637168884277,1.49,3.02,-1.88,3.85
22.382760047912598,1.04,4.17,-1.24,4.47
22.390627145767212,0.09,5.3,-0.57,5.33
22.40064001083374,-1.75,6.56,0.08,6.78
22.41068696975708,-3.73,6.45,1.8,7.66
22.422397136688232,-5.02,5.98,3.86,8.7
22.43084216117859,-5.65,6.38,5.01,9.88
22.44093108177185,-4.91,6.83,5.45,10.02
22.450988292694092,-2.82,7.34,4.91,9.27
22.461125135421753,-1.23,8.3,5.06,9.79
22.481008052825928,-0.94,9.61,5.91,11.32
22.48295497894287,-1.85,10.34,5.82,12.0
22.49113416671753,-2.89,10.32,4.64,11.67
22.501278162002563,-3.63,9.59,3.67,10.89
22.511434078216553,-4.73,8.21,3.83,10.21
22.523152112960815,-6.28,7.48,5.51,11.21
22.531628131866455,-7.7,6.88,6.13,12.0
22.541656970977783,-8.6,5.73,6.16,12.03
22.551748275756836,-8.72,4.28,4.3,10.62
22.561845302581787,-8.76,3.28,1.51,9.47
22.57496404647827,-9.11,2.39,-0.29,9.42
22.582072257995605,-9.84,1.44,-1.28,10.02
22.59606695175171,-10.76,0.62,-1.09,10.83
22.602192163467407,-11.9,-0.13,-0.04,11.9
22.61232900619507,-12.56,-0.02,0.47,12.56
22.62359118461609,-12.58,0.69,0.24,12.6
22.63256597518921,-12.36,0.67,0.55,12.39
22.642570972442627,-13.21,1.29,-0.8,13.29
22.652667999267578,-13.45,11.64,-2.35,17.94
22.662659168243408,-1.95,0.97,3.91,4.47
22.680803298950195,3.16,2.16,2.25,4.44
22.68289804458618,2.12,0.69,-2.78,3.56
22.69291114807129,1.95,0.83,-0.88,2.29
22.702970027923584,3.07,3.47,0.0,4.63
22.7131290435791,4.4,6.68,-4.78,9.31
22.72422218322754,4.91,9.67,-8.72,13.91
22.733290195465088,4.46,11.25,-8.11,14.56
22.743337154388428,2.31,8.65,-3.38,9.56
22.75346612930298,-2.57,1.74,4.68,5.61
22.76353120803833,-6.02,-0.95,15.9,17.02
22.78056812286377,-7.17,-3.15,11.26,13.71
22.783767223358154,-6.9,-4.06,3.98,8.94
22.793807983398438,-6.4,-2.79,2.91,7.56
22.803935050964355,-5.8,-0.46,0.18,5.82
22.814035177230835,-5.11,-0.05,-2.03,5.49
22.825430154800415,-4.32,-1.05,-2.92,5.31
22.834203243255615,-3.68,-1.4,-2.09,4.45
22.8441321849823,-2.62,-0.88,0.26,2.77
22.85434317588806,-0.92,-0.15,3.43,3.55
22.86441421508789,-0.48,-0.29,2.25,2.31
22.880558967590332,-1.15,-0.61,-0.49,1.39
22.88450813293457,-1.19,-0.45,-0.15,1.28
22.89471411705017,-0.39,-0.25,0.64,0.79
22.90508222579956,0.91,0.12,1.23,1.53
22.914895057678223,1.62,0.19,1.0,1.91
22.926087141036987,1.34,-0.05,-0.13,1.34
22.935018062591553,0.85,0.13,-0.89,1.23
22.944996118545532,0.63,0.43,-0.91,1.18
22.955639123916626,0.7,0.23,-0.42,0.84
22.96521806716919,0.85,0.07,0.1,0.85
22.980268955230713,0.88,0.18,0.41,0.98
22.98528218269348,0.71,0.23,0.25,0.78
22.99543809890747,0.61,0.08,0.03,0.61
23.006524085998535,0.7,0.01,0.02,0.7
23.01550316810608,0.8,0.09,0.04,0.8
23.02693223953247,0.91,0.17,-0.04,0.92
23.03543519973755,0.91,0.35,-0.29,1.01
23.045713186264038,0.85,0.4,-0.58,1.1
23.055767059326172,0.83,0.3,-0.75,1.15
23.067827224731445,0.89,0.27,-0.26,0.96
23.08084011077881,0.87,0.15,0.03,0.88
23.08618402481079,0.78,-0.15,-0.12,0.8
23.09623622894287,0.8,-0.27,0.14,0.85
23.106203079223633,0.73,-0.17,0.04,0.75
23.116507053375244,0.44,0.03,-0.22,0.49
23.127779960632324,0.22,-0.04,-0.14,0.26
23.136703968048096,0.18,0.0,-0.18,0.25
23.146564960479736,0.08,0.58,-0.56,0.81
23.156764030456543,0.24,0.9,-0.79,1.22
23.168281078338623,0.61,1.04,-0.98,1.55
23.18036127090454,0.97,1.26,-1.13,1.95
23.186962127685547,1.45,1.19,-1.12,2.18
23.197036266326904,1.88,1.36,-1.05,2.54
23.20708703994751,2.12,2.13,-0.69,3.08
23.2171950340271,2.41,2.76,-0.14,3.66
23.228544235229492,2.81,2.89,0.29,4.04
23.237327098846436,2.95,3.21,-0.02,4.35
23.247437953948975,2.96,3.51,-0.51,4.61
23.25761914253235,3.07,3.81,-0.57,4.92
23.26898217201233,2.92,4.01,-1.01,5.06
23.28032112121582,2.11,3.8,-1.7,4.66
23.287649154663086,1.79,3.88,-2.26,4.83
23.29778003692627,2.32,4.78,-2.18,5.74
23.307814121246338,2.84,6.62,-2.63,7.66
23.31795597076416,3.22,10.66,-3.64,11.71
23.330018043518066,3.2,17.89,-4.32,18.68
23.338825225830078,6.14,25.16,-3.28,26.1
23.34877610206604,11.03,20.76,-3.54,23.77
23.358766078948975,15.01,15.38,-2.78,21.66
23.369640111923218,16.76,12.92,0.97,21.18
23.380295276641846,18.29,11.4,1.95,21.63
23.388864040374756,17.77,5.89,-1.29,18.76
23.398667097091675,14.79,-2.02,0.75,14.94
23.408790111541748,10.37,-12.73,1.47,16.48
23.418760299682617,10.05,-12.52,4.04,16.55
23.429871082305908,9.77,-13.25,-4.48,17.06
23.4390971660614,8.61,-15.29,-8.52,19.5
23.448992252349854,8.69,-14.43,-7.75,18.54
23.459187984466553,9.97,-9.57,-7.99,15.96
23.469139099121094,9.5,-7.18,-9.3,15.1
23.480406284332275,8.24,-7.37,-9.09,14.31
23.48909902572632,7.29,-7.36,-7.18,12.6
23.499458074569702,6.54,-6.97,-6.44,11.52
23.50943422317505,5.85,-6.59,-7.01,11.26
23.51954221725464,5.29,-5.97,-6.69,10.41
23.530837059020996,4.76,-5.27,-5.66,9.08
23.539649963378906,4.2,-4.71,-4.71,7.87
23.54966926574707,3.91,-3.99,-4.01,6.87
23.55993413925171,3.76,-3.07,-3.52,5.99
23.569900035858154,3.62,-2.2,-3.25,5.33
23.581319093704224,3.52,-1.26,-3.35,5.02
23.590196132659912,3.55,-0.2,-3.65,5.09
23.60020112991333,3.44,0.83,-3.82,5.2
23.61025309562683,3.04,1.44,-3.91,5.15
23.620419025421143,2.42,1.71,-3.98,4.96
23.63176918029785,1.77,2.39,-3.87,4.88
23.640625,1.1,3.46,-3.84,5.28
23.650583267211914,0.29,5.24,-3.88,6.52
23.660778045654297,-2.01,8.29,-3.96,9.4
23.670835971832275,-4.68,8.71,-2.36,10.16
23.68267011642456,-6.14,6.97,-1.16,9.36
23.691004276275635,-7.47,6.7,-0.86,10.07
23.70112705230713,-8.02,7.63,1.12,11.12
23.711109161376953,-7.17,8.88,5.22,12.55
23.72188115119934,-5.41,10.41,7.01,13.66
23.73311996459961,-4.79,11.76,5.3,13.75
23.741376161575317,-5.66,11.08,3.5,12.92
23.751376152038574,-7.98,8.08,3.48,11.87
23.76164197921753,-9.76,5.68,4.68,12.22
23.77906322479248,-10.57,4.15,4.09,12.06
23.783504962921143,-10.96,4.24,3.47,12.25
23.79179620742798,-10.98,5.08,4.54,12.92
23.801823139190674,-10.61,5.32,4.03,12.53
23.811903953552246,-10.2,5.09,2.67,11.7
23.82220697402954,-9.95,4.29,1.32,10.91
23.833280086517334,-10.06,3.34,0.45,10.6
23.842178106307983,-10.65,2.34,0.01,10.9
23.852254152297974,-11.11,1.84,-0.77,11.28
23.863675117492676,-11.5,1.66,-1.48,11.71
23.87845802307129,-12.67,3.42,-3.06,13.47
23.883506298065186,-8.94,9.8,-4.09,13.88
23.892518043518066,-3.2,2.25,6.65,7.71
23.902599096298218,-0.4,6.11,-1.37,6.27
23.91268014907837,-1.24,-1.61,-3.66,4.18
23.92275905609131,-2.62,-6.39,3.18,7.6
23.9341721534729,-0.29,0.16,-0.23,0.4
23.943146228790283,2.8,7.83,-4.24,9.33
23.95314311981201,5.27,14.66,-9.59,18.29
23.964693069458008,4.47,16.5,-5.53,17.96
23.979183197021484,-0.53,9.44,2.69,9.83
23.9846510887146,-3.27,-0.64,3.27,4.66
23.993481159210205,-3.65,-4.86,4.98,7.85
24.00346612930298,-6.08,-6.16,11.82,14.65
24.013512134552002,-7.57,-5.44,6.82,11.55
24.02361011505127,-5.43,-0.42,2.65,6.05
24.034890174865723,-4.38,2.27,1.69,5.21
24.043997287750244,-4.48,0.21,-0.32,4.49
24.053805112838745,-4.41,-1.67,-3.73,6.01
24.06527614593506,-4.08,-1.09,-5.4,6.85
24.07940411567688,-2.96,-0.4,-3.19,4.37
24.08531904220581,-0.59,-0.23,2.2,2.28
24.094297170639038,2.36,0.17,7.84,8.18
24.104222297668457,2.23,0.31,5.0,5.48
24.114431142807007,-0.1,-0.44,0.47,0.65
24.1247341632843,-1.2,-0.49,-0.77,1.5
24.136044025421143,-1.12,0.0,-1.5,1.87
24.144777297973633,-0.34,0.06,-0.3,0.45
24.155254125595093,0.54,-0.16,2.21,2.28
24.166121006011963,0.64,-0.13,2.12,2.21
24.1793212890625,-0.23,-0.18,0.0,0.29
24.186087131500244,-0.73,-0.26,-0.98,1.24
24.195073127746582,-0.62,-0.17,-0.9,1.1
24.205573081970215,0.16,0.0,0.13,0.2
24.215214252471924,0.65,0.02,0.94,1.14
24.225377082824707,0.31,-0.07,0.22,0.38
24.236711978912354,0.05,0.01,-0.69,0.69
24.245525121688843,-0.01,0.04,-0.81,0.81
24.255635261535645,0.24,0.07,-0.28,0.37
24.265727043151855,0.62,0.12,0.35,0.72
24.27936315536499,0.6,-0.06,0.41,0.72
24.287068128585815,0.57,0.12,0.12,0.59
24.295891284942627,0.6,0.19,-0.23,0.67
24.30579900741577,0.74,0.22,-0.3,0.82
24.315933227539062,0.92,0.24,-0.19,0.96
24.326290130615234,1.05,0.21,-0.06,1.07
24.33755922317505,0.85,0.45,-0.48,1.07
24.346374988555908,0.66,0.67,-1.03,1.39
24.356234073638916,0.9,0.39,-0.62,1.16
24.366508960723877,1.34,0.29,0.46,1.44
24.379454135894775,1.5,0.38,0.83,1.75
24.387962102890015,1.44,0.48,0.33,1.55
24.396749019622803,1.43,0.79,-0.09,1.63
24.406756162643433,1.49,1.09,-0.48,1.9
24.416847229003906,1.33,1.58,-1.26,2.41
24.42694115638733,1.33,2.32,-2.01,3.34
24.438836097717285,1.58,2.46,-1.71,3.38
24.44715714454651,2.06,2.28,-0.7,3.15
24.457030296325684,2.49,2.18,-0.11,3.31
24.467376232147217,2.32,2.73,-0.4,3.6
24.47907304763794,2.31,2.4,-0.5,3.36
24.489113092422485,2.58,1.7,0.23,3.09
24.497501134872437,2.82,1.68,0.7,3.35
24.507553100585938,2.9,2.63,0.4,3.93
24.517608165740967,3.02,4.25,-0.06,5.21
24.527793169021606,3.28,5.48,-0.3,6.39
24.539505004882812,3.2,6.55,-0.76,7.32
24.54807710647583,3.83,9.35,-1.59,10.22
24.558287143707275,4.84,14.14,-1.95,15.07
24.568576097488403,7.64,17.67,-1.94,19.34
24.579215049743652,10.7,15.47,-2.07,18.92
24.589774131774902,13.13,10.35,-1.55,16.79
24.598414182662964,14.58,7.37,-0.35,16.34
24.608370304107666,15.18,5.22,1.32,16.1
24.618425130844116,13.16,0.52,5.45,14.25
24.628554105758667,10.01,-3.41,5.77,12.04
24.64030909538269,7.43,-6.54,2.62,10.23
24.648941040039062,6.64,-5.24,-1.05,8.52
24.660133123397827,5.78,-5.5,-5.12,9.48
24.668843269348145,5.45,-5.45,-6.41,10.02
24.6794331073761,5.1,-5.32,-4.81,8.8
24.69020128250122,4.65,-5.19,-1.57,7.14
24.69919729232788,4.22,-5.81,1.48,7.33
24.709246158599854,4.17,-6.92,2.46,8.44
24.719264030456543,4.77,-7.49,0.85,8.92
24.729352951049805,5.61,-6.58,-1.13,8.72
24.740670204162598,5.98,-4.94,-2.51,8.15
24.749572277069092,5.64,-4.09,-4.12,8.09
24.760855197906494,5.13,-3.49,-5.39,8.21
24.769658088684082,4.74,-2.71,-5.57,7.79
24.779616117477417,4.11,-2.01,-4.75,6.59
24.790980100631714,3.23,-1.76,-3.54,5.1
24.799864292144775,2.16,-1.91,-2.38,3.73
24.81002116203308,1.01,-2.14,-1.23,2.66
24.820030212402344,0.1,-2.57,0.34,2.59
24.830226182937622,0.02,-3.35,1.51,3.67
24.84154224395752,1.16,-3.46,1.0,3.78
24.85039710998535,2.32,-2.74,-0.55,3.63
24.861572265625,2.97,-1.58,-2.18,4.0
24.87051010131836,3.15,-0.5,-3.21,4.52
24.88054609298706,2.95,0.26,-3.32,4.44
24.891762256622314,2.31,0.94,-2.85,3.78
24.900614261627197,1.27,1.11,-2.36,2.9
24.910748958587646,0.18,1.0,-1.87,2.12
24.92072629928589,-0.65,1.09,-1.33,1.83
24.931097984313965,-1.1,1.28,-1.46,2.23
24.942327976226807,-1.22,1.41,-1.99,2.72
24.951171159744263,-1.19,1.56,-2.34,3.05
24.962432146072388,-1.07,1.87,-2.53,3.32
24.971363067626953,-0.94,2.35,-2.24,3.37
24.981362104415894,-0.86,2.96,-1.53,3.44
24.992695093154907,-0.84,3.56,-0.54,3.69
25.00156307220459,-0.98,3.62,0.87,3.84
25.011656284332275,-1.22,3.54,1.92,4.2
25.022146224975586,-1.41,4.01,2.01,4.7
25.033337116241455,-1.49,4.85,1.68,5.34
25.04288911819458,-1.74,5.52,1.81,6.06
25.051897048950195,-2.44,6.28,1.98,7.02
25.061795234680176,-3.85,6.46,2.14,7.81
25.07835817337036,-5.59,5.86,2.72,8.54
25.082129955291748,-6.94,5.36,2.49,9.11
25.09331703186035,-7.82,6.03,2.53,10.19
25.102269172668457,-8.57,6.65,4.0,11.56
25.11235523223877,-9.3,6.18,5.38,12.39
25.122321128845215,-9.83,4.91,5.26,12.18
25.132654190063477,-10.05,3.79,4.29,11.56
25.143822193145752,-10.16,2.89,3.7,11.19
25.152798175811768,-10.28,2.37,3.4,11.08
25.16273307800293,-10.47,2.1,3.11,11.12
25.178397178649902,-10.65,1.89,2.57,11.11
25.182809114456177,-10.94,1.81,1.52,11.19
25.19407606124878,-7.94,12.9,-2.28,15.31
25.203052043914795,-3.04,1.75,0.58,3.55
25.21316623687744,-0.47,-0.03,-0.52,0.7
25.223275184631348,-0.42,-1.68,-2.75,3.24
25.233415126800537,-0.78,-3.86,-2.47,4.64
25.244608163833618,0.37,-1.74,-5.83,6.09
25.253611087799072,2.89,2.34,-6.86,7.8
25.263575077056885,5.28,7.08,-4.32,9.83
25.27850914001465,5.35,10.12,1.06,11.49
25.28373908996582,2.77,8.06,3.63,9.26
25.29492211341858,0.38,5.32,2.26,5.79
25.303892135620117,-1.88,2.32,-0.13,2.98
25.314033031463623,-3.75,0.45,5.89,6.99
25.324267148971558,-4.66,-0.75,10.37,11.39
25.334298133850098,-4.3,-0.84,7.67,8.83
25.345404148101807,-4.06,-0.82,2.01,4.6
25.354379177093506,-3.93,-0.5,-3.18,5.08
25.364379167556763,-3.91,-0.34,-4.44,5.92
25.37828016281128,-3.91,-0.83,-3.4,5.24
25.38451623916626,-3.49,-1.14,-2.06,4.2
25.39582395553589,-2.43,-0.85,1.17,2.82
25.404750108718872,-0.58,-0.58,6.8,6.84
25.414846181869507,0.33,-0.64,5.83,5.87
25.424901962280273,-0.56,-0.51,1.26,1.47
25.435057163238525,-1.18,-0.48,-0.28,1.3
25.446357250213623,-1.07,-0.24,-1.75,2.06
25.46402406692505,-0.48,0.08,-1.81,1.87
25.4705171585083,0.42,0.1,0.39,0.58
25.475192070007324,1.07,0.1,1.78,2.07
25.485376119613647,1.07,0.16,0.98,1.45
25.49666714668274,0.67,-0.15,-0.14,0.7
25.50571298599243,0.39,-0.02,-0.64,0.74
25.515653133392334,0.45,0.17,-0.58,0.75
25.525662183761597,0.55,0.15,-0.23,0.61
25.535855293273926,0.72,0.14,-0.2,0.76
25.547171115875244,0.67,-0.08,-0.15,0.69
25.55733299255371,0.61,0.28,-0.34,0.75
25.565951108932495,0.61,0.2,-0.13,0.65
25.579185009002686,0.65,0.23,-0.19,0.71
25.58612823486328,0.66,0.08,-0.05,0.66
25.59744119644165,0.54,0.02,-0.1,0.54
25.606240272521973,0.41,-0.14,-0.08,0.44
25.6164391040802,0.37,-0.09,-0.03,0.38
25.62657117843628,0.55,-0.07,0.09,0.56
25.636699199676514,0.47,-0.26,-0.14,0.55
25.647905111312866,0.35,0.01,-0.63,0.72
25.658058166503906,0.29,0.3,-0.88,0.97
25.66686511039734,0.46,0.52,-0.75,1.02
25.67927122116089,0.66,0.59,-0.53,1.03
25.6870059967041,0.91,0.44,-0.14,1.02
25.698328971862793,1.19,0.15,0.36,1.25
25.70730710029602,1.47,0.19,0.68,1.63
25.717288970947266,1.51,0.45,0.31,1.6
25.72743797302246,1.47,0.83,-0.35,1.72
25.737462043762207,1.57,1.27,-0.56,2.09
25.74884605407715,1.68,1.52,-0.4,2.3
25.75905704498291,1.53,1.82,-0.68,2.47
25.76771306991577,1.2,2.23,-1.35,2.86
25.778943061828613,1.12,2.02,-1.4,2.7
25.787737131118774,1.26,1.65,-0.81,2.22
25.799203157424927,1.68,1.84,0.02,2.49
25.808114051818848,2.04,2.51,0.17,3.23
25.81807804107666,2.22,3.57,-0.6,4.24
25.828155994415283,2.45,4.4,-1.16,5.16
25.83872127532959,3.01,5.06,-1.03,5.97
25.84966516494751,4.0,6.08,-0.6,7.3
25.86211609840393,4.64,7.3,-0.72,8.67
25.8684561252594,4.44,9.24,-0.84,10.28
25.878897190093994,4.28,13.74,-1.57,14.47
25.889009952545166,8.68,17.8,-3.51,20.11
25.899957180023193,12.63,14.77,-3.2,19.69
25.908876180648804,13.56,8.85,-0.54,16.2
25.91895818710327,13.88,3.83,3.61,14.84
25.92891502380371,13.77,-0.8,5.63,14.89
25.93917417526245,10.92,-5.9,7.89,14.7
25.950294971466064,7.47,-10.31,3.74,13.26
25.962003231048584,5.98,-11.7,-0.73,13.15
25.969172954559326,5.29,-12.21,-5.38,14.35
25.979446172714233,5.43,-11.42,-8.45,15.2
25.989198207855225,6.48,-7.94,-7.51,12.7
26.000609159469604,6.4,-6.52,-4.33,10.11
26.009621143341064,5.98,-7.62,-4.25,10.57
26.019694089889526,6.74,-6.79,-4.24,10.46
26.029743194580078,7.45,-5.35,-2.52,9.51
26.039875984191895,7.05,-4.32,-1.59,8.41
26.051368236541748,6.07,-3.49,-2.97,7.6
26.06326413154602,5.45,-2.4,-4.63,7.54
26.06992506980896,5.08,-1.19,-5.02,7.24
26.080249071121216,4.54,-0.39,-4.49,6.39
26.09012222290039,3.72,-0.25,-3.72,5.26
26.101603031158447,2.86,-0.08,-2.49,3.79
26.11059808731079,1.72,-0.36,-0.42,1.8
26.120651245117188,0.59,-0.81,1.77,2.03
26.130690097808838,0.37,-0.44,1.99,2.07
26.140884160995483,1.1,0.46,-0.37,1.24
26.152311086654663,1.91,1.23,-2.76,3.57
26.16101908683777,2.13,1.73,-4.09,4.92
26.170944213867188,1.69,2.01,-4.63,5.32
26.180979251861572,0.79,2.13,-4.45,4.99
26.191176176071167,-0.34,2.17,-4.24,4.77
26.202486038208008,-1.41,2.09,-3.46,4.28
26.211361169815063,-2.49,1.53,-2.61,3.91
26.221452236175537,-3.5,0.94,-1.64,3.97
26.231550216674805,-4.3,0.18,-0.25,4.31
26.24168300628662,-4.08,-0.02,1.16,4.24
26.25448226928711,-2.49,0.64,1.24,2.85
26.264300107955933,-0.75,1.8,-0.11,1.95
26.272159099578857,0.37,3.14,-0.84,3.27
26.281825065612793,0.21,2.57,-0.28,2.59
26.291948080062866,-0.76,1.44,0.54,1.71
26.30324411392212,-1.42,1.86,1.28,2.66
26.312111139297485,-1.81,2.76,1.5,3.62
26.32257914543152,-2.07,3.16,0.86,3.87
26.3322811126709,-2.09,3.42,0.33,4.02
26.34239912033081,-1.98,3.68,-0.22,4.18
26.36264419555664,-1.86,4.16,-0.64,4.6
26.36473512649536,-1.6,5.41,-1.05,5.73
26.372318267822266,-1.4,6.81,-1.44,7.09
26.382626056671143,-1.51,6.82,-1.26,7.09
26.392763137817383,-2.29,5.67,-1.28,6.24
26.40405511856079,-3.77,4.95,-1.53,6.4
26.41291618347168,-6.08,4.38,-0.72,7.52
26.42289400100708,-8.67,3.12,1.53,9.34
26.43317222595215,-10.7,1.32,2.78,11.13
26.44328808784485,-11.55,1.77,1.49,11.77
26.463921070098877,-11.8,2.07,-0.98,12.02
26.46611213684082,-11.85,1.5,-2.08,12.12
26.473201274871826,-11.78,0.69,-0.64,11.81
26.48356008529663,-12.11,-0.06,0.72,12.13
26.493497133255005,-13.73,2.27,-1.7,14.01
26.50534415245056,-11.78,-0.74,0.12,11.8
26.513716220855713,-6.04,-4.37,7.98,10.92
26.523773193359375,-0.82,2.23,-2.43,3.39
26.53384518623352,1.76,4.32,-5.79,7.43
26.54404926300049,1.24,3.55,-1.4,4.01
26.564183235168457,1.74,4.22,0.36,4.57
26.5662522315979,2.94,5.26,-2.77,6.63
26.57415509223938,3.63,6.94,-5.26,9.43
26.58421802520752,3.67,8.48,-3.13,9.75
26.59432029724121,2.1,6.64,-0.57,6.98
26.606029987335205,-0.3,3.06,-1.44,3.39
26.61448311805725,-1.67,1.82,-5.61,6.12
26.624650955200195,-3.06,0.55,-3.31,4.54
26.634693145751953,-5.38,0.06,17.72,18.51
26.644894123077393,-6.84,-2.19,14.46,16.14
26.66389012336731,-5.4,-2.21,3.16,6.63
26.665918111801147,-4.29,-1.63,0.93,4.68
26.67499303817749,-3.5,-0.4,0.37,3.54
26.68514108657837,-3.2,0.3,-1.29,3.46
26.695209980010986,-3.21,0.13,-2.72,4.2
26.706861972808838,-2.99,0.04,-2.53,3.91
26.715423107147217,-2.67,0.02,-2.28,3.51
26.72533130645752,-2.22,0.07,-2.09,3.04
26.735568046569824,-1.63,0.04,-1.76,2.39
26.745694160461426,-0.84,-0.08,-0.41,0.93
26.764475107192993,0.44,-0.23,2.47,2.51
26.766582012176514,2.09,-0.41,5.48,5.87
26.775893211364746,2.76,-0.62,5.36,6.06
26.785953998565674,1.96,-0.25,1.76,2.64
26.796041011810303,1.04,0.18,-0.96,1.42
26.807202100753784,0.48,0.36,-2.34,2.41
26.816195011138916,0.14,0.21,-2.51,2.52
26.826266288757324,-0.01,0.1,-1.71,1.71
26.83627223968506,0.21,0.2,-0.49,0.56
26.846408128738403,0.58,0.25,0.36,0.72
26.864204168319702,0.89,-0.06,1.31,1.58
26.866466999053955,0.95,-0.26,1.03,1.42
26.876604080200195,0.73,-0.25,-0.04,0.77
26.88676118850708,0.58,-0.12,-0.38,0.7
26.89672613143921,0.51,0.13,-0.52,0.73
26.908193111419678,0.61,0.31,-0.21,0.71
26.916965007781982,0.69,0.09,0.12,0.7
26.927052974700928,0.79,0.0,0.17,0.8
26.93717622756958,0.75,0.14,-0.11,0.77
26.947309017181396,0.7,0.29,-0.1,0.76
26.964080095291138,0.68,0.21,-0.35,0.79
26.967305183410645,0.81,0.18,-0.25,0.86
26.977426052093506,0.91,0.09,-0.2,0.93
26.987642288208008,1.01,0.04,-0.13,1.01
26.99764609336853,1.03,0.11,0.11,1.04
27.009122133255005,0.98,0.18,0.05,0.99
27.017821073532104,0.94,0.17,-0.06,0.95
27.027778148651123,0.98,0.06,0.08,0.98
27.037856101989746,1.13,0.03,0.21,1.14
27.049437046051025,1.14,-0.01,0.11,1.14
27.063844203948975,0.98,0.11,-0.43,1.07
27.068167209625244,1.05,0.43,-0.95,1.47
27.078317165374756,1.38,0.36,-0.44,1.49
27.088744163513184,1.59,0.24,0.13,1.61
27.098334074020386,1.48,0.37,-0.01,1.52
27.109745979309082,1.3,0.63,-0.17,1.45
27.11851930618286,1.25,0.84,-0.01,1.5
27.12852716445923,1.47,0.64,0.42,1.65
27.139053106307983,1.47,0.47,-0.05,1.54
27.150358200073242,1.38,0.75,-1.02,1.87
27.164762020111084,1.05,1.34,-1.59,2.32
27.168886184692383,0.88,2.23,-1.08,2.62
27.17903423309326,1.27,2.88,-0.29,3.16
27.189293146133423,1.58,2.99,-0.14,3.38
27.199302196502686,1.65,3.37,-0.75,3.82
27.210700035095215,1.77,4.24,-1.09,4.72
27.21955108642578,2.18,5.17,-0.24,5.61
27.22947406768799,2.57,6.7,-0.09,7.17
27.23938012123108,2.66,8.94,-1.68,9.47
27.25108528137207,2.67,11.16,-2.8,11.81
27.263798236846924,3.42,13.12,-2.55,13.79
27.270339012145996,6.05,16.69,-2.2,17.88
27.28039813041687,10.21,20.23,-3.69,22.95
27.289871215820312,14.0,15.96,-3.61,21.53
27.29995107650757,15.29,9.18,1.61,17.9
27.31134009361267,16.49,4.99,6.67,18.47
27.32014513015747,15.73,1.08,4.66,16.44
27.330389976501465,12.22,-3.35,2.17,12.85
27.340391159057617,9.22,-6.83,-3.21,11.91
27.351829051971436,6.9,-9.32,-4.86,12.57
27.363620281219482,5.34,-10.72,-6.65,13.69
27.370623111724854,4.89,-9.05,-7.4,12.67
27.380731105804443,5.04,-5.87,-3.23,8.38
27.390814304351807,4.5,-6.16,0.3,7.63
27.40086817741394,4.49,-8.38,1.96,9.7
27.412150144577026,5.68,-9.59,1.88,11.3
27.421040058135986,7.1,-9.4,-0.35,11.78
27.431186199188232,7.86,-8.15,-2.6,11.61
27.4412522315979,7.96,-6.78,-3.89,11.15
27.45130729675293,7.8,-5.74,-4.65,10.74
27.463593006134033,7.17,-5.17,-4.79,10.05
27.471464157104492,5.77,-5.35,-4.51,9.06
27.481418132781982,4.59,-5.32,-4.05,8.11
27.491679191589355,3.86,-4.62,-3.92,7.18
27.501655101776123,3.47,-3.64,-3.91,6.37
27.51304316520691,3.22,-2.83,-3.62,5.61
27.52223515510559,2.88,-2.34,-3.18,4.88
27.53207302093506,2.33,-2.18,-2.71,4.18
27.541978120803833,1.71,-2.0,-1.86,3.22
27.552208185195923,1.25,-1.64,-0.75,2.19
27.56384801864624,0.96,-1.18,0.2,1.53
27.572550296783447,1.1,-0.67,0.69,1.46
27.582296133041382,1.63,0.01,0.61,1.74
27.592401027679443,2.12,0.96,0.2,2.33
27.60242223739624,2.33,2.19,-0.15,3.2
27.613768100738525,2.25,3.4,-0.16,4.08
27.62265920639038,1.91,4.19,0.2,4.6
27.632718086242676,1.5,4.79,0.62,5.05
27.642759084701538,1.13,5.39,0.84,5.57
27.652865171432495,0.88,6.16,1.0,6.3
27.664303302764893,0.65,7.3,1.6,7.5
27.67281198501587,0.31,8.19,2.26,8.5
27.68306016921997,0.36,9.15,1.09,9.22
27.693233013153076,0.37,10.21,0.5,10.22
27.70324420928955,-0.18,9.92,5.55,11.36
27.715216159820557,-0.39,15.27,1.27,15.32
27.72332525253296,-2.26,15.34,0.62,15.51
27.733546257019043,-5.77,7.44,4.15,10.28
27.743579149246216,-7.3,6.31,2.38,9.93
27.753767013549805,-8.51,1.13,2.92,9.06
27.76550006866455,-11.38,6.68,1.04,13.23
27.773900985717773,-11.84,2.69,6.26,13.66
27.78384017944336,-12.56,0.23,6.07,13.95
27.793987274169922,-12.67,0.85,1.82,12.82
27.804058074951172,-12.51,2.01,-0.18,12.67
27.815454959869385,-11.67,0.86,0.45,11.71
27.824267148971558,-10.68,-2.68,6.55,12.81
27.834278106689453,-10.17,-1.62,2.15,10.52
27.845763206481934,-8.15,8.46,-11.08,16.14
27.854572296142578,-3.75,6.48,-5.37,9.21
27.86570930480957,-3.7,-1.41,2.31,4.58
27.874779224395752,-5.56,2.57,-2.72,6.7
27.884687185287476,-6.44,6.68,-11.23,14.56
27.89481210708618,-5.77,3.43,-12.39,14.09
27.90485429763794,-2.44,-0.9,14.74,14.96
27.916218280792236,-1.1,-0.77,24.03,24.06
27.92502498626709,-2.91,0.28,1.76,3.41
27.93516516685486,-3.09,-0.81,1.83,3.68
27.94640827178955,-3.01,-1.25,2.4,4.04
27.961956024169922,-3.96,-1.27,-1.57,4.44
27.966331005096436,-5.15,-1.75,-4.35,6.96
27.9755539894104,-5.8,-1.88,-3.33,6.94
27.98552417755127,-5.55,-1.66,-2.25,6.21
27.995638132095337,-3.5,-1.72,0.07,3.9
28.00592803955078,-0.44,-0.7,6.18,6.23
28.016994953155518,0.58,0.63,5.31,5.37
28.025874137878418,-0.36,-0.11,-1.39,1.44
28.03586721420288,-0.16,-0.61,-0.09,0.63
28.047346115112305,-0.4,-0.2,1.18,1.26
28.0628080368042,-0.91,-0.08,0.14,0.92
28.067289113998413,-0.78,-0.33,-0.61,1.04
28.076231002807617,-0.23,-0.13,-0.25,0.36
28.086403131484985,0.76,0.39,1.1,1.39
28.096534252166748,1.5,0.54,0.97,1.86
28.106475114822388,1.47,0.29,-0.51,1.58
28.11801528930664,1.37,0.22,-0.45,1.45
28.126694202423096,1.45,0.3,0.3,1.51
28.13666009902954,1.46,0.31,0.28,1.51
28.148208141326904,1.53,0.62,-0.47,1.71
28.163047075271606,1.41,0.87,-1.23,2.06
28.16816210746765,1.41,0.74,-1.29,2.04
28.177155017852783,1.74,0.58,-0.54,1.91
28.187066078186035,1.93,0.51,0.26,2.01
28.19723415374756,1.71,0.34,0.25,1.76
28.207372188568115,1.41,0.2,-0.13,1.43
28.218693256378174,1.08,0.23,-0.37,1.16
28.22752809524536,0.91,0.24,-0.53,1.08
28.237552165985107,0.94,0.15,-0.55,1.09
28.247639179229736,0.96,0.16,-0.73,1.21
28.26219129562378,0.95,0.33,-0.89,1.34
28.2688090801239,1.14,0.36,-0.31,1.23
28.27786111831665,1.29,0.22,0.32,1.34
28.287939071655273,1.21,0.05,0.22,1.23
28.29806900024414,1.04,-0.14,0.15,1.06
28.308228969573975,0.93,-0.08,0.31,0.98
28.319409132003784,0.81,0.19,0.18,0.85
28.328346252441406,0.61,0.5,-0.36,0.86
28.338796138763428,0.62,1.38,-0.58,1.62
28.348493099212646,0.87,1.89,-0.81,2.23
28.362511157989502,1.06,1.86,-1.42,2.56
28.369672298431396,1.23,2.01,-1.52,2.8
28.378717184066772,1.4,2.18,-0.84,2.72
28.38927698135376,1.62,2.5,-0.34,2.99
28.398924112319946,1.73,2.83,-0.3,3.33
28.408955097198486,2.12,2.55,0.69,3.38
28.420289039611816,2.14,2.2,1.1,3.26
28.429094076156616,1.62,2.59,0.12,3.05
28.439393997192383,1.21,3.61,-0.62,3.85
28.44926118850708,1.36,4.99,-0.55,5.2
28.462809085845947,1.77,6.28,-0.7,6.56
28.47059917449951,2.07,7.83,-1.59,8.25
28.479571104049683,2.6,10.66,-2.03,11.15
28.489610195159912,3.3,13.5,-1.69,13.99
28.500208139419556,4.3,14.85,-0.24,15.46
28.50977611541748,6.47,13.02,0.22,14.54
28.521271228790283,8.04,9.4,0.11,12.36
28.530001163482666,8.3,9.04,-0.76,12.29
28.540061950683594,8.91,9.48,-0.99,13.04
28.550124168395996,9.87,7.88,0.07,12.62
28.562915086746216,11.29,3.39,1.31,11.86
28.57152509689331,11.53,-0.67,0.3,11.55
28.580358028411865,9.78,-5.84,-1.47,11.48
28.590418100357056,7.87,-7.71,-1.26,11.08
28.600592136383057,6.09,-8.73,-4.08,11.39
28.61066198348999,5.54,-8.17,-6.14,11.62
28.62223720550537,6.27,-6.26,-5.42,10.38
28.63063621520996,7.15,-4.27,-3.33,8.96
28.642065048217773,7.24,-4.22,-2.61,8.77
28.65091609954834,7.11,-5.58,-3.43,9.66
28.662811279296875,7.19,-6.59,-4.51,10.74
28.672726154327393,7.39,-6.51,-4.89,10.99
28.68130612373352,7.51,-5.53,-4.33,10.28
28.69127917289734,6.88,-4.49,-3.5,8.92
28.70141315460205,5.81,-4.0,-3.29,7.78
28.71147608757019,4.88,-3.46,-3.82,7.09
28.723389148712158,3.92,-2.35,-4.68,6.54
28.73160409927368,2.91,-1.05,-5.19,6.04
28.743349075317383,2.15,-0.71,-4.7,5.21
28.751808166503906,1.75,-1.12,-3.96,4.47
28.762542247772217,1.4,-1.28,-3.77,4.22
28.773396968841553,1.15,-0.63,-3.91,4.12
28.782042026519775,0.81,0.42,-3.33,3.45
28.79203224182129,0.18,0.96,-2.36,2.55
28.8021240234375,-0.42,1.25,-1.83,2.25
28.81222105026245,-1.06,1.8,-2.19,3.02
28.823791027069092,-1.69,2.46,-3.26,4.41
28.832351207733154,-2.29,3.39,-4.02,5.73
28.843695163726807,-2.94,4.37,-4.08,6.66
28.852416038513184,-3.66,5.17,-3.27,7.12
28.862460136413574,-4.37,5.44,-1.62,7.16
28.873672008514404,-4.83,5.1,0.23,7.02
28.882791996002197,-4.89,4.95,2.34,7.34
28.89286708831787,-4.37,5.68,4.59,8.51
28.90291929244995,-3.89,7.01,5.05,9.47
28.91304111480713,-4.15,7.98,3.58,9.68
28.92432403564453,-5.46,6.61,2.21,8.85
28.933244228363037,-7.22,4.29,2.45,8.74
28.944475173950195,-8.35,3.14,3.5,9.58
28.953359127044678,-8.9,3.62,3.42,10.19
28.963451147079468,-8.95,4.82,3.85,10.87
28.974488258361816,-8.69,5.11,4.2,10.92
28.983675956726074,-8.53,3.89,3.05,9.85
28.993696212768555,-8.38,2.57,1.77,8.94
29.003823280334473,-8.56,1.51,1.1,8.76
29.01384401321411,-9.11,0.66,0.92,9.18
29.025307178497314,-9.86,-0.04,0.69,9.88
29.03405213356018,-11.59,2.83,-0.9,11.96
29.04413414001465,-7.89,6.61,0.81,10.32
29.054157257080078,-3.23,-1.75,9.05,9.76
29.064223289489746,0.28,3.34,-4.5,5.61
29.075525283813477,1.04,1.85,-7.68,7.96
29.084453105926514,0.48,0.75,-2.73,2.87
29.09445810317993,1.33,2.03,-1.63,2.92
29.104571104049683,2.69,4.1,-4.69,6.78
29.114742279052734,3.24,7.07,-7.08,10.51
29.126037120819092,3.05,9.88,-4.68,11.34
29.134757041931152,0.17,11.6,0.06,11.6
29.14480495452881,-3.11,7.09,1.31,7.85
29.154872179031372,-4.18,-2.28,3.55,5.93
29.16504406929016,-6.15,-5.5,11.45,14.11
29.176210165023804,-6.9,-5.29,7.77,11.66
29.185256958007812,-6.84,-2.29,4.66,8.58
29.195269107818604,-6.07,0.64,2.64,6.65
29.205787181854248,-5.04,-0.15,-0.1,5.04
29.215516090393066,-4.57,-1.83,-3.3,5.92
29.226952075958252,-4.54,-1.93,-4.7,6.81
29.235639095306396,-3.93,-1.06,-3.73,5.52
29.245702266693115,-2.42,-0.09,-1.17,2.68
29.26293110847473,-0.36,0.15,3.31,3.33
29.26588201522827,1.41,0.14,5.59,5.76
29.27712917327881,1.31,-0.08,1.82,2.24
29.286133289337158,0.69,-0.27,0.11,0.74
29.296069145202637,0.47,-0.21,-0.27,0.58
29.30615210533142,0.76,0.36,-0.99,1.29
29.316355228424072,1.25,0.43,-0.56,1.43
29.327805042266846,1.45,0.36,0.58,1.6
29.336440086364746,1.13,0.3,0.66,1.34
29.34649419784546,0.61,0.19,-0.08,0.64
29.362572193145752,0.28,0.02,-0.48,0.55
29.36680006980896,0.27,0.0,-0.22,0.34
29.378108978271484,0.5,-0.02,0.29,0.57
29.386970043182373,0.64,0.01,0.42,0.76
29.396883010864258,0.52,0.1,0.03,0.53
29.407104015350342,0.38,0.08,-0.26,0.46
29.417280197143555,0.47,0.0,-0.12,0.48
29.4286789894104,0.63,0.09,-0.02,0.63
29.44617795944214,0.78,0.19,-0.23,0.83
29.452877044677734,0.86,0.18,-0.81,1.19
29.457367181777954,0.98,0.34,-0.79,1.3
29.467470169067383,1.27,0.35,-0.53,1.41
29.47857904434204,1.44,0.26,-0.79,1.66
29.48774814605713,1.6,0.41,-0.85,1.85
29.497735023498535,1.86,0.57,-0.55,2.02
29.507927179336548,2.1,0.71,-0.36,2.24
29.5179181098938,2.13,0.64,-0.86,2.38
29.529234170913696,2.04,0.49,-1.3,2.46
29.546849250793457,2.16,0.69,-1.08,2.51
29.553502082824707,2.06,1.18,-0.95,2.55
29.55818796157837,1.62,1.29,-0.52,2.13
29.56834602355957,1.09,1.02,-0.31,1.52
29.579522132873535,0.77,1.06,-0.51,1.4
29.58841609954834,0.93,1.51,-0.46,1.83
29.59859323501587,1.38,2.04,-0.69,2.55
29.608609199523926,1.76,2.16,-0.01,2.78
29.618762016296387,1.66,1.89,0.66,2.6
29.63025712966919,1.35,1.54,0.1,2.05
29.648301124572754,1.22,1.89,-1.0,2.46
29.654847145080566,1.42,3.05,-1.18,3.56
29.65896701812744,2.0,4.75,-0.71,5.2
29.66892910003662,2.49,6.59,-1.81,7.27
29.680174112319946,3.11,7.85,-1.4,8.55
29.689414978027344,4.1,6.81,1.37,8.06
29.69922924041748,4.62,4.68,2.12,6.9
29.70934510231018,4.36,4.82,0.84,6.55
29.71944522857666,3.89,6.84,0.24,7.87
29.73082208633423,3.42,9.3,0.11,9.9
29.740787029266357,2.94,11.13,-0.4,11.51
29.7497341632843,3.74,12.39,0.78,12.96
29.76249122619629,6.52,10.78,1.66,12.7
29.769833087921143,7.8,7.13,0.43,10.57
29.7811222076416,7.59,4.62,-0.05,8.88
29.789923191070557,6.84,1.86,1.19,7.18
29.800153255462646,6.24,-1.81,2.87,7.1
29.81027603149414,6.71,-4.53,3.13,8.67
29.82035517692566,7.04,-6.22,-0.96,9.44
29.83169913291931,6.78,-5.82,-7.65,11.76
29.8459529876709,6.65,-5.62,-9.64,12.98
29.851864099502563,6.88,-5.02,-8.78,12.23
29.86062717437744,7.27,-2.09,-6.21,9.78
29.870742082595825,6.87,-0.89,-4.27,8.13
29.881893157958984,6.54,-2.53,-4.11,8.12
29.89097023010254,6.97,-4.16,-4.53,9.29
29.901029109954834,7.23,-4.27,-4.51,9.53
29.911039113998413,7.36,-3.22,-3.97,8.96
29.92114019393921,7.38,-2.21,-4.11,8.73
29.9324631690979,7.41,-1.52,-4.66,8.88
29.946022033691406,7.47,-1.01,-4.86,8.96
29.952025175094604,7.19,-0.51,-4.72,8.61
29.96145510673523,6.42,-0.28,-4.64,7.92
29.971522092819214,5.41,-0.23,-4.33,6.93
29.982694149017334,4.57,0.3,-4.07,6.12
29.991786003112793,3.85,0.83,-4.23,5.77
30.00175428390503,3.27,1.03,-4.4,5.57
30.011856079101562,2.86,0.92,-4.41,5.33
30.022247076034546,2.51,1.08,-4.41,5.18
30.033329963684082,2.17,1.85,-4.26,5.12
30.046266078948975,1.73,2.63,-3.9,5.01
30.05257511138916,1.22,3.16,-3.38,4.78
30.062247276306152,0.66,3.5,-2.88,4.58
30.072747230529785,0.2,3.91,-2.46,4.62
30.083752155303955,-0.26,4.01,-1.87,4.43
30.09261703491211,-0.62,3.9,-1.19,4.12
30.10262417793274,-0.87,3.93,-0.45,4.05
30.112624168395996,-0.87,4.04,0.42,4.15
30.122867107391357,-0.68,4.55,0.94,4.69
30.134228229522705,-0.55,5.24,0.95,5.35
30.146358013153076,-0.68,5.66,0.39,5.71
30.152846097946167,-1.0,6.17,-0.32,6.25
30.163097143173218,-1.78,6.32,-0.9,6.62
30.17306423187256,-3.04,6.1,-1.24,6.92
30.18487024307251,-4.41,6.48,-0.94,7.89
30.193360090255737,-5.35,7.03,-0.91,8.88
30.20332622528076,-6.16,7.64,-1.53,9.93
30.213512182235718,-6.98,7.43,-1.67,10.33
30.22345495223999,-7.62,6.46,-1.72,10.13
30.23649311065674,-8.13,5.79,-2.41,10.26
30.246246099472046,-8.79,5.58,-3.57,11.0
30.253814220428467,-9.54,5.57,-4.54,11.94
30.26387596130371,-10.36,5.05,-3.91,12.17
30.274051189422607,-11.17,3.35,-1.9,11.81
30.285158157348633,-12.64,0.56,-2.82,12.96
30.29419207572937,-12.53,-2.88,1.11,12.9
30.30417823791504,-12.49,-5.28,11.67,17.89
30.31434416770935,-10.36,-4.06,2.94,11.5
30.324347019195557,-8.08,1.17,-15.71,17.7
30.337038040161133,-3.62,9.53,-10.9,14.92
30.345550060272217,-0.84,12.51,5.06,13.52
30.355008125305176,-4.07,16.88,5.51,18.21
30.36466407775879,-7.08,12.81,2.18,14.79
30.37475609779358,-7.07,9.22,-2.72,11.93
30.38587713241577,-7.44,2.8,-8.07,11.32
30.395023107528687,-6.49,-3.52,-9.49,12.02
