time,ax,ay,az,atotal
0.005426883697509766,0.04,-0.13,0.24,0.27
0.013511896133422852,-0.03,0.02,0.09,0.09
0.023775100708007812,-0.03,0.02,-0.01,0.03
0.04062509536743164,-0.03,-0.03,-0.01,0.04
0.043334007263183594,-0.05,-0.06,0.07,0.1
0.058673858642578125,-0.05,-0.09,0.13,0.16
0.06319808959960938,0.0,-0.02,0.17,0.17
0.07379674911499023,0.12,0.0,0.12,0.16
0.08348703384399414,0.07,0.19,0.14,0.24
0.09356498718261719,0.0,0.22,0.16,0.27
0.10401487350463867,0.11,0.14,0.16,0.23
0.11357879638671875,0.19,0.13,0.26,0.34
0.12374305725097656,0.16,0.11,0.3,0.35
0.14138078689575195,0.12,0.12,0.26,0.31
0.14349985122680664,0.14,0.17,0.28,0.35
0.15927982330322266,0.16,0.19,0.32,0.4
0.16344785690307617,0.21,0.19,0.38,0.47
0.17408180236816406,0.24,0.12,0.34,0.43
0.18355798721313477,0.23,0.07,0.27,0.36
0.19386005401611328,0.18,0.04,0.08,0.2
0.20378780364990234,0.05,0.02,-0.14,0.15
0.21361207962036133,-0.12,0.0,-0.35,0.37
0.22388696670532227,-0.31,-0.04,-0.45,0.54
0.24238896369934082,-0.43,-0.01,-0.48,0.64
0.24498987197875977,-0.48,-0.04,-0.49,0.68
0.25818586349487305,-0.42,0.0,-0.35,0.54
0.26352787017822266,-0.23,0.05,-0.23,0.32
0.27416181564331055,-0.03,0.04,-0.15,0.15
0.2842550277709961,0.13,0.09,-0.04,0.16
0.2941098213195801,0.21,0.11,0.02,0.23
0.3039360046386719,0.16,0.11,-0.01,0.19
0.31406593322753906,0.09,0.13,-0.07,0.17
0.3243529796600342,0.04,0.13,-0.1,0.16
0.342771053314209,-0.04,0.09,-0.11,0.14
0.3459157943725586,-0.09,0.04,-0.07,0.12
0.35907602310180664,-0.11,0.04,-0.03,0.12
0.36394309997558594,-0.09,0.0,0.03,0.09
0.3747859001159668,-0.04,-0.06,0.09,0.11
0.3843350410461426,-0.01,-0.11,0.11,0.15
0.3958778381347656,-0.02,-0.17,0.07,0.18
0.4043917655944824,-0.06,-0.2,0.06,0.21
0.4143259525299072,-0.13,-0.2,0.02,0.23
0.4245438575744629,-0.22,-0.17,-0.02,0.27
0.44257497787475586,-0.23,-0.19,-0.03,0.29
0.44403505325317383,-0.21,-0.23,-0.01,0.31
0.45851898193359375,-0.19,-0.16,0.13,0.28
0.46393680572509766,-0.1,-0.09,0.23,0.26
0.4741239547729492,0.01,-0.08,0.25,0.26
0.4845409393310547,0.12,-0.13,0.29,0.33
0.4942140579223633,0.17,-0.17,0.28,0.36
0.5053179264068604,0.1,-0.18,0.25,0.32
0.515103816986084,-0.03,-0.15,0.13,0.2
0.524573802947998,-0.14,-0.04,-0.02,0.14
0.5488801002502441,-0.16,0.04,-0.1,0.19
0.5500659942626953,-0.11,0.1,-0.16,0.21
0.5542688369750977,-0.09,0.09,-0.2,0.23
0.5641169548034668,-0.09,0.12,-0.19,0.24
0.5742330551147461,-0.06,0.16,-0.18,0.24
0.5847578048706055,-0.05,0.16,-0.23,0.28
0.5945887565612793,-0.02,0.22,-0.26,0.34
0.6045627593994141,-0.02,0.29,-0.25,0.38
0.6144919395446777,0.0,0.37,-0.09,0.38
0.6247477531433105,0.1,0.54,0.15,0.56
0.6482930183410645,0.24,0.67,0.36,0.79
0.6494588851928711,0.49,0.68,0.58,1.01
0.6544890403747559,0.81,0.67,0.79,1.31
0.6644620895385742,0.99,0.59,0.77,1.38
0.6752469539642334,0.92,0.49,0.56,1.18
0.6847019195556641,0.74,0.46,0.3,0.92
0.6950139999389648,0.5,0.37,-0.03,0.62
0.7048368453979492,0.21,0.23,-0.41,0.51
0.7146439552307129,-0.14,0.06,-0.7,0.71
0.7254838943481445,-0.5,-0.1,-0.86,0.99
0.7492868900299072,-0.85,-0.21,-1.0,1.32
0.7504699230194092,-1.14,-0.37,-1.08,1.61
0.7547059059143066,-1.26,-0.57,-1.01,1.71
0.7647418975830078,-1.18,-0.78,-0.8,1.62
0.7753639221191406,-1.05,-0.98,-0.45,1.5
0.7852599620819092,-0.86,-1.07,-0.05,1.37
0.7951579093933105,-0.74,-1.08,0.25,1.33
0.805048942565918,-0.63,-1.01,0.45,1.27
0.8150029182434082,-0.46,-0.83,0.68,1.16
0.8257269859313965,-0.13,-0.63,0.91,1.11
0.848646879196167,0.32,-0.39,1.04,1.15
0.8498439788818359,0.71,-0.11,1.09,1.3
0.8548519611358643,0.94,0.14,0.98,1.36
0.8648920059204102,1.0,0.33,0.71,1.27
0.8749499320983887,0.91,0.49,0.48,1.13
0.8855118751525879,0.73,0.51,0.25,0.92
0.8958909511566162,0.45,0.38,0.05,0.59
0.9064898490905762,0.16,0.26,0.0,0.3
0.9151277542114258,-0.15,0.22,-0.01,0.26
0.9258790016174316,-0.39,0.18,-0.04,0.43
0.950037956237793,-0.47,0.13,-0.06,0.49
0.9514451026916504,-0.33,0.05,-0.07,0.34
0.955172061920166,-0.08,-0.01,0.02,0.08
0.9656219482421875,0.17,0.04,0.16,0.23
0.9757449626922607,0.29,0.22,0.26,0.44
0.9852628707885742,0.37,0.38,0.32,0.61
0.9961409568786621,0.52,0.39,0.29,0.71
1.0071158409118652,0.65,0.32,0.27,0.77
1.0156989097595215,0.63,0.27,0.19,0.71
1.0260000228881836,0.38,0.27,0.07,0.47
1.0500969886779785,0.05,0.3,-0.02,0.3
1.0512208938598633,-0.18,0.3,-0.13,0.37
1.055907964706421,-0.26,0.24,-0.09,0.36
1.0652928352355957,-0.14,0.2,-0.09,0.26
1.075976848602295,0.0,0.12,-0.11,0.16
1.0857429504394531,0.09,0.07,-0.1,0.15
1.0960118770599365,0.11,0.13,-0.12,0.2
1.1074049472808838,0.06,0.15,-0.21,0.26
1.115859031677246,-0.02,0.13,-0.38,0.4
1.1258330345153809,-0.09,0.15,-0.52,0.54
1.1510047912597656,-0.19,0.11,-0.63,0.66
1.152324914932251,-0.39,-0.02,-0.71,0.81
1.1575219631195068,-0.57,-0.08,-0.57,0.81
1.1659998893737793,-0.61,-0.08,-0.31,0.68
1.176764965057373,-0.47,-0.12,-0.14,0.5
1.18585205078125,-0.28,-0.16,-0.03,0.32
1.1962149143218994,-0.08,-0.07,0.1,0.14
1.2079579830169678,0.13,0.07,0.27,0.3
1.2159159183502197,0.28,0.1,0.3,0.42
1.22603178024292,0.39,0.07,0.33,0.51
1.2496118545532227,0.45,0.06,0.49,0.66
1.2507100105285645,0.45,0.04,0.64,0.78
1.2571420669555664,0.37,0.03,0.64,0.73
1.265665054321289,0.22,0.03,0.55,0.59
1.275784969329834,0.14,0.0,0.37,0.39
1.2864689826965332,0.12,-0.04,0.22,0.25
1.2959070205688477,0.11,-0.07,0.14,0.19
1.3091719150543213,0.01,-0.09,0.04,0.09
1.316330909729004,-0.13,-0.11,-0.04,0.17
1.326265811920166,-0.26,-0.18,-0.07,0.32
1.3498730659484863,-0.25,-0.18,-0.01,0.3
1.3509819507598877,-0.19,-0.13,-0.03,0.23
1.3577327728271484,-0.06,-0.09,-0.32,0.33
1.3660540580749512,0.15,-0.25,0.07,0.29
1.3760828971862793,-0.09,0.03,0.39,0.4
1.386673927307129,-0.16,0.25,0.41,0.5
1.3967289924621582,0.04,-0.14,0.25,0.28
1.4087409973144531,0.33,-0.22,0.25,0.46
1.4165730476379395,0.31,-0.16,0.25,0.42
1.4279069900512695,0.04,-0.15,0.14,0.2
1.4514007568359375,-0.19,-0.09,0.04,0.21
1.452582836151123,-0.16,-0.01,-0.02,0.16
1.4581129550933838,-0.05,0.01,0.0,0.05
1.466275930404663,-0.01,0.0,-0.01,0.01
1.4769620895385742,0.01,0.06,0.05,0.07
1.4867987632751465,0.03,0.13,0.19,0.23
1.4968669414520264,0.08,0.14,0.26,0.3
1.5067028999328613,0.18,0.12,0.22,0.3
1.5169179439544678,0.24,0.07,0.12,0.27
1.526628017425537,0.17,0.04,0.03,0.17
1.5506319999694824,0.06,0.01,0.01,0.06
1.5518040657043457,-0.05,-0.08,0.05,0.1
1.5563468933105469,-0.11,-0.14,0.15,0.23
1.5663509368896484,-0.05,-0.14,0.21,0.25
1.5769059658050537,0.01,-0.08,0.19,0.2
1.5870928764343262,0.03,0.01,0.13,0.13
1.5970330238342285,0.04,0.04,0.06,0.08
1.606611967086792,0.09,0.06,0.01,0.1
1.6175899505615234,0.11,0.02,0.01,0.11
1.6270270347595215,0.08,0.01,0.06,0.1
1.6517579555511475,0.0,0.08,0.09,0.12
1.6531500816345215,-0.06,0.13,0.03,0.14
1.6570467948913574,-0.05,0.11,-0.04,0.12
1.6675148010253906,-0.05,0.08,-0.05,0.1
1.6770920753479004,-0.1,0.03,-0.08,0.13
1.6874170303344727,-0.17,-0.01,-0.05,0.17
1.6970820426940918,-0.17,-0.03,0.03,0.17
1.7069530487060547,-0.11,-0.08,0.07,0.15
1.7179169654846191,-0.1,-0.15,0.08,0.19
1.7270750999450684,-0.13,-0.18,0.11,0.24
1.751262903213501,-0.13,-0.17,0.12,0.24
1.7524759769439697,-0.08,-0.22,0.18,0.29
1.7569680213928223,-0.09,-0.33,0.22,0.4
1.7675449848175049,-0.13,-0.36,0.27,0.46
1.7775449752807617,-0.16,-0.35,0.34,0.51
1.7874550819396973,-0.1,-0.32,0.35,0.48
1.7976229190826416,0.01,-0.26,0.31,0.4
1.8075180053710938,0.06,-0.19,0.42,0.46
1.8174479007720947,0.15,-0.14,0.58,0.61
1.827322006225586,0.37,-0.08,0.63,0.73
1.8515069484710693,0.53,0.0,0.63,0.82
1.8525910377502441,0.51,0.02,0.49,0.7
1.8571898937225342,0.42,0.17,0.27,0.52
1.867069959640503,0.32,0.26,0.09,0.42
1.877242088317871,0.19,0.29,-0.16,0.38
1.8876338005065918,0.02,0.39,-0.36,0.53
1.897665023803711,-0.15,0.45,-0.43,0.64
1.907261848449707,-0.18,0.38,-0.37,0.56
1.9174318313598633,-0.07,0.32,-0.28,0.43
1.9280967712402344,0.05,0.26,-0.21,0.33
1.9522700309753418,0.09,0.16,-0.21,0.27
1.9533929824829102,0.02,0.01,-0.11,0.11
1.9574229717254639,-0.02,-0.14,0.0,0.14
1.9673259258270264,0.02,-0.21,0.03,0.21
1.9779539108276367,0.07,-0.22,-0.09,0.24
1.9873559474945068,-0.07,-0.2,-0.25,0.32
1.9977078437805176,-0.36,-0.12,-0.21,0.43
2.0076889991760254,-0.39,0.14,-0.02,0.41
2.0179147720336914,-0.12,0.43,0.23,0.5
2.0277979373931885,0.21,0.42,0.27,0.54
2.0509138107299805,0.35,0.36,0.03,0.5
2.052064895629883,0.22,0.48,-0.2,0.56
2.0574870109558105,0.04,0.46,-0.24,0.52
2.0675389766693115,-0.02,0.23,-0.16,0.28
2.0776379108428955,-0.07,-0.01,-0.04,0.08
2.088141918182373,-0.12,-0.14,0.1,0.2
2.097963809967041,-0.16,-0.34,0.11,0.39
2.1077537536621094,-0.2,-0.53,0.05,0.56
2.117891788482666,-0.24,-0.64,-0.02,0.68
2.12814998626709,-0.29,-0.71,-0.08,0.77
2.15252685546875,-0.38,-0.76,-0.13,0.85
2.1537458896636963,-0.47,-0.81,-0.17,0.95
2.157763957977295,-0.51,-0.75,-0.16,0.92
2.167719841003418,-0.47,-0.64,-0.13,0.8
2.1789097785949707,-0.49,-0.48,-0.2,0.71
2.188389778137207,-0.5,-0.25,-0.42,0.69
2.198288917541504,-0.38,0.08,-0.83,0.91
2.207943916320801,-0.16,0.42,-1.08,1.16
2.2187318801879883,-0.08,0.56,-1.45,1.55
2.2280807495117188,-0.24,0.68,-1.58,1.73
2.2516839504241943,-0.48,0.93,-1.39,1.73
2.252829074859619,-0.59,1.17,-1.03,1.66
2.2579407691955566,-0.48,1.3,-0.56,1.49
2.267970085144043,-0.27,1.35,0.0,1.37
2.2780370712280273,0.06,1.31,0.44,1.38
2.2879109382629395,0.46,1.25,0.76,1.53
2.298064947128296,0.86,1.3,1.17,1.94
2.3087167739868164,1.28,1.27,1.39,2.27
2.318324089050293,1.58,1.08,1.48,2.41
2.328329086303711,1.63,0.67,1.33,2.2
2.351263999938965,1.42,0.11,1.24,1.88
2.352428913116455,0.98,-0.46,1.56,1.89
2.3582358360290527,0.4,-1.05,1.89,2.19
2.3682079315185547,-0.32,-1.64,1.77,2.43
2.3782730102539062,-1.05,-2.1,1.53,2.8
2.388868808746338,-2.15,-2.76,1.59,3.84
2.3988149166107178,-3.29,-3.03,0.69,4.52
2.408663749694824,-3.9,-2.53,-0.43,4.66
2.4187209606170654,-3.42,-1.39,-0.79,3.77
2.4286561012268066,-2.08,-1.14,-1.37,2.73
2.451976776123047,-1.32,-2.68,-1.9,3.54
2.4531588554382324,-0.36,-2.71,-0.63,2.8
2.4583609104156494,1.69,-1.35,-1.77,2.79
2.468419075012207,4.45,0.12,-4.21,6.12
2.478445053100586,5.41,-1.57,-6.68,8.73
2.4884209632873535,2.75,-0.02,-5.6,6.23
2.498508930206299,-1.12,2.9,-1.57,3.48
2.5090548992156982,-2.83,1.83,0.53,3.41
2.5188517570495605,-2.33,0.26,1.25,2.65
2.530344009399414,-1.67,0.47,2.83,3.31
2.5523409843444824,-1.35,0.36,3.92,4.16
2.553525924682617,-0.67,0.89,5.12,5.23
2.558587074279785,0.96,1.12,5.8,5.98
2.568634033203125,3.02,0.08,5.89,6.61
2.5809249877929688,4.91,-1.16,4.99,7.09
2.5889389514923096,5.05,-2.11,3.22,6.35
2.5991029739379883,3.09,-1.8,1.2,3.77
2.608841896057129,0.98,-0.69,-0.79,1.43
2.6190879344940186,-0.22,-0.35,-2.47,2.5
2.6307718753814697,-0.89,-0.88,-3.33,3.55
2.652461051940918,-1.35,-1.61,-3.54,4.11
2.6536507606506348,-1.83,-1.9,-3.37,4.27
2.6587867736816406,-1.99,-1.69,-3.39,4.27
2.6688928604125977,-1.9,-1.22,-3.18,3.9
2.6799378395080566,-2.12,-0.77,-1.83,2.9
2.689586877822876,-2.4,-0.01,0.22,2.41
2.6994400024414062,-1.63,0.8,2.06,2.74
2.7093939781188965,0.55,0.69,2.9,3.03
2.719860076904297,3.33,0.86,4.39,5.57
2.731165885925293,5.3,1.53,6.06,8.19
2.75254487991333,5.82,2.29,6.42,8.96
2.7537119388580322,4.73,2.52,5.15,7.43
2.7590439319610596,2.9,2.51,2.33,4.48
2.7691030502319336,1.04,2.23,-1.03,2.66
2.7818188667297363,-0.92,1.26,-3.88,4.18
2.7895169258117676,-4.0,0.07,-5.73,6.98
2.800057888031006,-6.17,-0.13,-6.03,8.62
2.8095359802246094,-5.61,0.07,-5.29,7.71
2.820539951324463,-2.82,-0.81,-3.8,4.8
2.831577777862549,-0.62,-1.34,-0.95,1.75
2.852621078491211,0.52,-0.99,2.34,2.59
2.853813886642456,1.45,-0.83,3.99,4.32
2.8592147827148438,2.22,-0.55,3.8,4.43
2.869791030883789,1.96,-0.07,2.65,3.29
2.8808717727661133,0.78,0.53,1.14,1.47
2.8893017768859863,-0.25,1.0,-0.33,1.08
2.90016508102417,-0.81,1.1,-1.48,2.01
2.90972900390625,-1.05,1.11,-1.97,2.49
2.91977596282959,-1.02,1.01,-1.62,2.16
2.9319448471069336,-0.6,0.82,-0.74,1.25
2.9531869888305664,0.0,0.37,-0.01,0.37
2.95436692237854,0.35,-0.03,0.56,0.66
2.9594850540161133,0.32,-0.07,0.79,0.85
2.969989776611328,0.16,-0.05,0.45,0.48
2.981194019317627,-0.03,0.05,0.01,0.05
2.99080491065979,-0.31,0.06,-0.19,0.36
2.999955892562866,-0.51,-0.04,-0.02,0.51
3.0098929405212402,-0.55,-0.13,0.24,0.61
3.0202198028564453,-0.34,0.04,0.37,0.5
3.0323920249938965,0.02,0.43,0.19,0.47
3.0536417961120605,0.28,0.49,-0.15,0.58
3.054823875427246,0.27,0.42,-0.22,0.54
3.0596728324890137,0.03,0.3,-0.02,0.3
3.0697638988494873,-0.23,-0.02,0.17,0.28
3.0832347869873047,-0.32,-0.12,0.26,0.42
3.0901999473571777,-0.3,0.06,0.08,0.31
3.10017991065979,-0.24,0.21,-0.18,0.36
3.109853982925415,-0.21,0.33,-0.19,0.43
3.1202688217163086,-0.22,0.34,-0.12,0.42
3.1299469470977783,-0.23,0.1,-0.06,0.25
3.1465320587158203,-0.16,-0.11,-0.02,0.19
3.1555938720703125,-0.06,0.06,0.18,0.19
3.160038948059082,0.01,0.11,0.17,0.2
3.1699347496032715,0.03,-0.06,-0.08,0.1
3.1799120903015137,0.26,-0.16,0.0,0.3
3.191706895828247,0.61,-0.04,-0.01,0.61
3.2008748054504395,0.8,-0.02,0.37,0.88
3.210129976272583,0.71,-0.14,0.3,0.78
3.221036911010742,0.65,-0.34,0.51,0.89
3.2302019596099854,0.61,-0.3,0.47,0.82
3.247107982635498,0.77,-0.08,0.68,1.03
3.2558679580688477,0.66,-0.46,0.76,1.1
3.2602157592773438,0.35,-0.51,0.41,0.74
3.2701289653778076,0.34,0.07,0.56,0.65
3.28078293800354,0.38,0.06,0.42,0.56
3.291266918182373,0.33,-0.15,0.03,0.36
3.3011538982391357,0.18,-0.03,-0.67,0.69
3.3109450340270996,0.35,0.59,-0.52,0.86
3.320755958557129,0.22,0.85,-0.54,1.03
3.3304600715637207,-0.34,0.47,-0.57,0.81
3.3474249839782715,-0.51,0.36,-0.96,1.14
3.3555259704589844,-0.35,0.73,-0.89,1.2
3.3603930473327637,-0.08,0.71,-0.54,0.89
3.370436906814575,0.1,0.36,-0.71,0.8
3.380520820617676,-0.21,0.24,-0.66,0.73
3.3911569118499756,-0.52,0.5,-0.28,0.77
3.400941848754883,-0.49,0.44,-0.03,0.65
3.4107279777526855,-0.2,0.16,-0.09,0.27
3.421194076538086,0.04,0.11,-0.23,0.25
3.4306719303131104,0.08,0.06,-0.13,0.16
3.4472527503967285,0.16,0.1,-0.07,0.2
3.4559688568115234,0.15,0.43,-0.13,0.47
3.460563898086548,-0.15,0.26,-0.17,0.34
3.470561981201172,-0.31,-0.02,0.1,0.32
3.4812140464782715,-0.28,-0.1,0.37,0.47
3.4911179542541504,-0.15,-0.22,0.36,0.44
3.5009899139404297,0.0,-0.33,0.06,0.33
3.5114150047302246,-0.23,-0.11,-0.1,0.27
3.5216050148010254,-0.33,0.31,0.09,0.46
3.5308308601379395,-0.1,-0.02,0.23,0.25
3.547513961791992,0.25,-0.39,0.16,0.49
3.555614948272705,0.56,-0.16,0.24,0.62
3.5609230995178223,0.8,0.04,0.11,0.8
3.571237087249756,0.83,0.23,-0.26,0.89
3.5812809467315674,0.48,0.42,-0.18,0.66
3.5908639430999756,0.09,0.25,-0.07,0.27
3.6014208793640137,0.11,-0.04,-0.04,0.12
3.611055850982666,0.36,-0.28,0.2,0.49
3.621330976486206,0.48,-0.13,0.33,0.59
3.6309380531311035,0.68,0.06,0.35,0.76
3.6477019786834717,1.0,0.0,0.25,1.03
3.656751871109009,0.96,-0.08,0.36,1.02
3.661073923110962,0.7,-0.19,0.63,0.96
3.67156982421875,0.65,-0.11,0.63,0.91
3.68178391456604,0.47,-0.18,0.51,0.71
3.6913228034973145,-0.04,-0.11,0.51,0.52
3.702119827270508,-0.03,0.27,0.42,0.5
3.7112009525299072,0.23,0.38,0.07,0.44
3.721430778503418,0.36,0.48,-0.09,0.6
3.7311720848083496,0.47,0.64,0.11,0.8
3.747921943664551,0.46,0.67,0.25,0.85
3.7556958198547363,0.46,0.83,0.44,1.04
3.7612080574035645,0.59,0.86,0.34,1.09
3.7712130546569824,0.72,1.26,1.31,1.95
3.7813119888305664,0.07,0.83,1.46,1.68
3.7919259071350098,0.7,0.06,0.04,0.7
3.8017609119415283,0.98,0.71,1.01,1.57
3.811539888381958,0.33,1.4,0.37,1.48
3.8223958015441895,0.03,1.42,-0.53,1.51
3.831742763519287,0.34,1.93,0.03,1.95
3.8484809398651123,0.66,2.15,0.4,2.28
3.856289863586426,1.19,1.88,0.35,2.25
3.8614230155944824,1.75,2.01,0.41,2.69
3.8714380264282227,2.11,2.48,0.5,3.29
3.8814120292663574,2.24,2.69,0.3,3.51
3.8915159702301025,2.37,2.68,-0.03,3.57
3.901500940322876,2.42,2.64,-0.39,3.6
3.9122447967529297,2.45,2.72,-0.64,3.71
3.922360897064209,2.45,3.06,-0.9,4.02
3.9322168827056885,2.47,3.43,-1.2,4.39
3.9484729766845703,2.57,3.97,-2.22,5.22
3.957736015319824,2.6,4.88,-3.4,6.49
3.9618799686431885,2.89,5.4,-0.87,6.18
3.971705913543701,4.18,5.5,-0.79,6.95
3.9823670387268066,5.69,5.73,-1.73,8.25
3.9921751022338867,7.21,6.67,-1.08,9.88
4.002852916717529,8.97,7.79,-1.36,11.95
4.0118818283081055,10.77,8.31,-2.05,13.75
4.022140979766846,12.03,7.98,-2.5,14.65
4.032451868057251,10.99,7.29,-3.54,13.65
4.049036979675293,4.74,6.16,2.52,8.17
4.057149887084961,0.19,7.03,9.67,11.95
4.061862945556641,2.24,7.86,8.37,11.69
4.071846008300781,6.46,6.74,2.59,9.68
4.084945917129517,8.54,5.24,-0.18,10.02
4.092013835906982,9.03,4.8,-0.43,10.23
4.103909969329834,9.73,7.09,-1.19,12.09
4.112107753753662,10.95,11.01,0.13,15.52
4.122379779815674,11.1,12.13,1.75,16.53
4.132142066955566,9.23,9.07,5.2,13.94
4.149338960647583,6.98,5.05,-0.37,8.62
4.157639026641846,4.43,2.97,-4.95,7.27
4.162126064300537,0.3,6.61,-6.72,9.43
4.1720709800720215,-4.89,8.02,2.44,9.7
4.182570934295654,-3.9,3.33,-1.62,5.37
4.192893981933594,0.9,-1.72,-0.93,2.15
4.204201936721802,6.44,-6.48,0.27,9.13
4.212350845336914,11.37,-9.52,-2.37,15.01
4.222549915313721,13.26,-9.9,-1.15,16.58
4.232388019561768,13.13,-7.96,2.77,15.6
4.249077796936035,13.58,-4.66,4.4,15.01
4.258419036865234,14.55,-2.1,1.91,14.82
4.262358903884888,15.24,-0.39,-0.85,15.26
4.272356986999512,14.33,0.28,-1.35,14.39
4.283636093139648,11.57,-0.53,-0.33,11.58
4.294284820556641,8.26,-2.31,0.33,8.58
4.304935932159424,5.28,-3.69,0.16,6.44
4.312596797943115,3.24,-3.5,-0.37,4.78
4.322865009307861,1.96,-2.27,-1.02,3.16
4.333443880081177,1.51,-0.83,-1.74,2.44
4.3490118980407715,1.81,0.66,-2.1,2.84
4.358963966369629,2.52,1.76,-1.39,3.37
4.3626580238342285,3.26,1.85,-0.14,3.75
4.372504949569702,3.57,1.1,1.09,3.89
4.38346004486084,3.22,0.62,1.81,3.74
4.393303871154785,2.54,1.25,2.11,3.53
4.405174970626831,1.92,2.85,1.91,3.93
4.413139820098877,0.96,4.66,1.27,4.92
4.423235893249512,-0.82,6.5,0.01,6.55
4.433095932006836,-3.65,9.06,-4.94,10.94
4.4495298862457275,-6.54,10.68,-1.57,12.62
4.459784030914307,-8.4,11.27,1.55,14.14
4.462945938110352,-9.45,10.09,2.77,14.09
4.47353196144104,-10.16,8.83,4.44,14.17
4.483001947402954,-10.95,9.2,3.92,14.82
4.493450880050659,-11.63,9.97,-1.57,15.39
4.505558013916016,-12.9,9.79,-2.08,16.32
4.513242959976196,-15.38,9.8,2.04,18.35
4.523186922073364,-18.16,8.03,5.7,20.65
4.532970905303955,-20.97,3.32,4.61,21.72
4.549817085266113,-22.69,-1.85,2.65,22.91
4.5595197677612305,-22.07,-2.74,3.35,22.49
4.563078880310059,-22.23,-0.77,3.75,22.55
4.572971820831299,-24.18,-0.29,0.8,24.19
4.583258867263794,-25.39,-0.2,-1.86,25.45
4.593080997467041,-24.02,0.33,-1.7,24.08
4.606135845184326,-20.85,-1.6,-1.19,20.94
4.613337993621826,-8.62,4.96,1.26,10.02
4.623430967330933,4.73,13.82,-8.83,17.06
4.633241891860962,15.19,14.23,-7.77,22.21
4.650531768798828,14.37,13.57,-2.72,19.95
4.66002082824707,6.41,10.25,-7.01,13.97
4.663325786590576,-0.93,6.43,0.76,6.54
4.673739910125732,-3.94,1.77,4.36,6.13
4.683700084686279,-5.13,-1.42,-1.31,5.48
4.693753957748413,-9.3,-1.28,-1.49,9.5
4.704876899719238,-15.43,-1.25,-0.65,15.49
4.713572978973389,-17.48,-1.16,-2.74,17.73
4.7237548828125,-14.95,-0.78,-0.74,14.98
4.734086990356445,-8.33,-2.58,1.1,8.78
4.7506608963012695,-0.53,-5.58,2.29,6.05
4.753533840179443,5.04,-2.72,0.93,5.8
4.763490915298462,8.36,4.42,-3.37,10.03
4.773436069488525,10.28,6.88,-3.16,12.76
4.783869981765747,8.49,-0.11,4.46,9.59
4.793500900268555,4.02,-4.01,5.14,7.65
4.8058390617370605,-1.0,-1.49,-0.02,1.79
4.8137829303741455,-5.92,0.6,-2.49,6.45
4.82397985458374,-7.27,0.34,-2.54,7.7
4.834412097930908,-4.82,-0.91,0.04,4.9
4.850759029388428,-1.07,-2.12,2.86,3.71
4.853749752044678,1.96,-1.46,3.41,4.19
4.863801002502441,3.5,0.77,0.62,3.63
4.873847961425781,3.97,2.06,-1.28,4.65
4.884256839752197,2.15,1.04,-0.53,2.44
4.894356966018677,-0.29,-0.11,0.54,0.62
4.903875827789307,-1.77,-0.45,0.45,1.88
4.9140777587890625,-2.12,-0.1,0.01,2.12
4.924105882644653,-1.03,0.09,0.15,1.04
4.934092044830322,0.57,-0.09,0.79,0.97
4.950977802276611,1.61,0.07,0.96,1.87
4.953906059265137,1.44,0.33,0.49,1.55
4.964428901672363,0.31,0.42,0.1,0.53
4.973877906799316,-0.6,0.41,0.19,0.75
4.983872890472412,-0.25,0.23,0.55,0.64
4.994359970092773,0.8,0.43,0.79,1.2
5.004734992980957,1.34,0.68,0.73,1.67
5.014702796936035,1.2,0.61,0.75,1.54
5.024298906326294,0.7,0.38,0.54,0.96
5.034174919128418,0.41,0.56,0.34,0.77
5.051232814788818,0.54,1.0,0.05,1.13
5.053989887237549,0.81,1.11,-0.31,1.4
5.064170837402344,0.84,1.15,-0.53,1.51
5.074461936950684,0.59,1.04,-0.7,1.38
5.084628105163574,0.44,1.05,-0.58,1.27
5.094696998596191,0.49,1.18,-0.72,1.46
5.10440993309021,0.6,1.02,-0.71,1.38
5.114764928817749,0.73,1.05,-0.71,1.46
5.125032901763916,0.79,1.13,-0.82,1.6
5.134209871292114,0.66,1.2,-0.84,1.6
5.151315927505493,0.59,1.24,-0.77,1.57
5.1542840003967285,0.79,1.42,-0.85,1.83
5.164374828338623,0.88,1.28,-1.04,1.86
5.17416787147522,0.82,1.25,-0.99,1.79
5.184926986694336,0.93,1.59,-0.75,1.98
5.194851875305176,1.46,1.98,-0.17,2.46
5.204417943954468,2.23,2.14,0.55,3.13
5.2150139808654785,2.91,2.32,1.17,3.9
5.2246949672698975,3.32,2.54,1.6,4.47
5.2344958782196045,3.16,2.79,1.68,4.53
5.2515177726745605,2.91,3.15,1.25,4.46
5.254428863525391,3.18,3.92,0.13,5.04
5.264754772186279,3.7,5.58,-0.82,6.74
5.275388956069946,4.42,7.72,1.2,8.97
5.284703969955444,6.18,9.5,1.6,11.44
5.295018911361694,7.92,9.78,1.82,12.71
5.305380821228027,8.58,10.15,1.99,13.43
5.3153369426727295,8.0,11.44,2.19,14.13
5.325035095214844,7.37,12.69,3.45,15.07
5.335448980331421,6.94,12.96,5.04,15.54
5.351595878601074,7.7,12.02,5.39,15.25
5.354705810546875,9.18,10.21,4.42,14.42
5.365844964981079,9.55,8.18,3.66,13.09
5.3757710456848145,9.34,5.2,3.26,11.17
5.386030912399292,9.04,2.71,-4.34,10.38
5.394664764404297,7.48,3.5,-4.44,9.37
5.4073638916015625,3.5,7.69,1.34,8.55
5.415256977081299,-4.77,12.66,7.52,15.47
5.425303936004639,-11.04,10.84,4.26,16.04
5.435206890106201,-7.7,3.64,2.32,8.82
5.452318906784058,0.6,-1.3,3.42,3.7
5.454753875732422,7.0,-4.1,3.81,8.96
5.465695858001709,11.64,-6.44,1.85,13.43
5.474876880645752,14.78,-8.49,1.32,17.09
5.4857399463653564,16.2,-9.17,2.31,18.75
5.495781898498535,15.47,-8.27,1.85,17.63
5.505530834197998,14.22,-7.5,0.48,16.08
5.515273094177246,13.65,-7.18,-0.05,15.42
5.526795864105225,13.34,-6.83,-0.57,14.99
5.535074949264526,12.55,-6.5,-1.08,14.17
5.552306890487671,11.06,-6.28,-0.79,12.74
5.555118083953857,8.9,-6.0,0.14,10.73
5.565820932388306,6.21,-5.45,1.26,8.35
5.575150966644287,3.73,-4.45,1.4,5.97
5.585184097290039,2.21,-2.32,1.43,3.5
5.595623016357422,1.8,-0.1,2.61,3.17
5.605837821960449,1.57,0.59,3.81,4.16
5.615721940994263,0.69,0.25,5.01,5.06
5.625757932662964,-0.73,0.23,6.28,6.32
5.635511875152588,-1.92,1.18,7.73,8.05
5.652299880981445,-2.55,2.88,8.87,9.66
5.655261993408203,-2.95,4.35,8.63,10.1
5.666034936904907,-3.35,4.99,7.92,9.94
5.6753997802734375,-3.58,4.8,7.67,9.73
5.685436964035034,-3.38,4.17,8.48,10.03
5.696223974227905,-2.87,3.5,9.86,10.84
5.7058868408203125,-2.13,2.83,10.69,11.26
5.715771913528442,-1.16,2.45,10.97,11.29
5.727262020111084,-0.14,2.62,11.1,11.4
5.735728979110718,0.58,3.24,10.62,11.11
5.752474784851074,0.9,3.8,9.93,10.67
5.755509853363037,1.01,3.89,9.39,10.21
5.766185760498047,1.11,4.05,7.78,8.84
5.775551795959473,0.69,4.18,5.81,7.19
5.785689830780029,-0.33,4.63,4.29,6.32
5.796072006225586,-1.68,5.4,3.28,6.53
5.8062639236450195,-2.96,6.25,3.03,7.55
5.816159963607788,-4.17,7.01,2.54,8.54
5.8275580406188965,-5.35,7.16,-0.14,8.93
5.835921764373779,-6.43,6.22,-1.01,9.0
5.853190898895264,-8.38,5.11,4.89,10.96
5.8557820320129395,-10.49,4.32,7.22,13.44
5.866486072540283,-12.33,4.35,4.73,13.9
5.877027988433838,-13.67,5.38,4.18,15.27
5.886547088623047,-15.21,5.46,4.2,16.69
5.896266937255859,-18.49,3.28,1.96,18.88
5.906048774719238,-22.62,0.61,0.53,22.63
5.916154861450195,-25.08,-1.36,1.07,25.13
5.92819881439209,-24.49,-0.98,1.48,24.55
5.936131954193115,-20.98,1.77,1.61,21.11
5.952877044677734,-16.85,4.14,2.21,17.49
5.955978870391846,-13.24,4.78,2.53,14.3
5.96607780456543,-5.63,5.19,4.81,9.04
5.977222919464111,8.55,6.6,2.75,11.14
5.986733913421631,21.21,6.01,1.61,22.1
5.99643087387085,19.37,3.83,0.53,19.75
6.0062479972839355,3.85,2.24,4.24,6.14
6.017005920410156,-12.28,2.05,5.99,13.81
6.028332948684692,-19.14,3.4,0.56,19.44
6.0368428230285645,-17.56,-0.98,2.36,17.74
6.053010940551758,-8.72,-5.01,3.15,10.53
6.056277751922607,-0.78,-2.22,0.53,2.41
6.0667500495910645,2.82,0.68,-0.93,3.04
6.078726768493652,2.68,1.14,-0.74,3.0
6.0867600440979,1.13,1.85,-0.76,2.29
6.096725940704346,-0.42,2.07,-1.96,2.88
6.106452941894531,-1.33,1.1,-2.72,3.22
6.116627931594849,-1.38,0.55,-2.1,2.57
6.1287219524383545,-0.99,0.37,-1.02,1.46
6.13651704788208,-0.34,0.25,-0.07,0.42
6.153316974639893,0.58,-0.25,0.95,1.14
6.156538009643555,1.22,-0.87,1.5,2.12
6.16691780090332,0.96,-0.94,1.9,2.32
6.179006099700928,0.27,-0.56,1.89,1.98
6.186720848083496,0.05,-0.13,1.27,1.27
6.1973958015441895,-0.05,-0.02,0.1,0.11
6.206731796264648,0.04,0.24,-0.08,0.25
6.2168989181518555,0.37,0.46,-0.17,0.61
6.229046821594238,0.6,0.23,-0.7,0.95
6.2366437911987305,0.04,-0.11,-0.55,0.56
6.2540388107299805,-0.08,0.64,1.19,1.35
6.256771087646484,0.55,-0.01,1.07,1.2
6.267149925231934,0.84,-0.73,0.98,1.48
6.278272867202759,0.63,-0.25,1.63,1.76
6.287052869796753,0.44,-0.02,1.23,1.3
6.297098875045776,0.59,0.12,0.68,0.9
6.307123899459839,0.62,0.38,0.32,0.79
6.316973924636841,0.45,0.21,0.05,0.49
6.3269898891448975,0.3,0.36,-0.11,0.48
6.3372719287872314,0.3,0.86,-0.1,0.91
6.354008913040161,0.63,1.06,-0.21,1.25
6.356950759887695,0.96,1.12,-0.47,1.54
6.367400884628296,0.93,1.14,-0.16,1.47
6.376980781555176,0.72,1.08,0.24,1.32
6.387221813201904,0.71,1.16,0.47,1.43
6.397214889526367,0.97,1.56,0.36,1.87
6.407051086425781,1.31,1.98,0.42,2.41
6.417775869369507,1.64,2.22,0.79,2.87
6.4271440505981445,1.89,2.33,0.78,3.09
6.4371747970581055,2.08,2.38,-0.26,3.17
6.4535908699035645,2.03,2.42,-1.84,3.65
6.457135915756226,2.07,2.65,-2.79,4.36
6.4693379402160645,2.21,3.25,-2.88,4.87
6.477509021759033,2.47,3.93,-1.96,5.03
6.487905025482178,2.97,4.36,-0.43,5.29
6.497440814971924,3.78,4.69,0.91,6.09
6.507684946060181,4.93,5.37,1.76,7.49
6.518046855926514,6.18,6.86,1.13,9.3
6.527504920959473,7.34,9.4,0.76,11.95
6.537765026092529,8.99,11.02,3.46,14.63
6.554347991943359,11.54,10.44,0.78,15.58
6.557421922683716,13.65,9.72,1.73,16.84
6.56929087638855,15.42,10.44,2.77,18.82
6.577517986297607,17.87,10.27,6.07,21.48
6.587948799133301,15.57,9.37,1.38,18.22
6.59771990776062,6.74,9.78,5.59,13.12
6.607516765594482,0.62,10.58,11.49,15.63
6.617735862731934,2.54,9.47,10.94,14.69
6.627616882324219,6.32,7.6,2.99,10.32
6.637970924377441,7.21,9.19,7.77,14.02
6.65526008605957,7.06,12.58,7.32,16.17
6.657583951950073,4.6,13.83,0.93,14.6
6.669666767120361,3.15,11.85,1.6,12.36
6.678354978561401,4.27,8.41,3.54,10.07
6.688675880432129,6.46,5.85,2.81,9.15
6.697968006134033,9.16,3.42,3.04,10.23
6.707812786102295,11.94,0.29,2.93,12.29
6.717885971069336,14.85,-3.5,2.16,15.4
6.727952003479004,16.86,-6.55,2.7,18.28
6.7377848625183105,16.85,-7.32,3.7,18.74
6.754717826843262,14.97,-6.06,3.99,16.63
6.757829904556274,12.39,-4.06,3.38,13.46
6.769151926040649,10.37,-2.45,2.87,11.03
6.777678966522217,9.27,-1.68,2.61,9.77
6.788510799407959,9.06,-1.91,2.33,9.54
6.7982587814331055,9.28,-2.88,2.15,9.95
6.808119773864746,9.48,-3.64,2.32,10.41
6.818746089935303,9.37,-3.36,2.79,10.33
6.828004837036133,8.99,-2.74,2.81,9.8
6.837950944900513,8.31,-1.95,2.81,8.98
6.855013847351074,7.37,-0.62,3.12,8.02
6.858292102813721,6.4,0.79,3.34,7.26
6.870112895965576,5.22,1.87,3.99,6.83
6.877949953079224,3.92,2.5,4.37,6.38
6.888033866882324,2.65,3.17,4.08,5.8
6.897978782653809,1.54,4.27,4.02,6.06
6.909347057342529,0.74,5.81,4.03,7.1
6.918547868728638,0.15,7.58,3.66,8.41
6.928591966629028,-0.87,9.32,3.55,10.01
6.938678979873657,-2.54,10.67,3.31,11.45
6.955977916717529,-4.99,11.5,3.62,13.04
6.958491802215576,-8.45,11.93,4.92,15.42
6.969689846038818,-13.06,12.2,6.3,18.94
6.978229999542236,-18.47,11.89,7.15,23.1
6.988401889801025,-22.92,10.92,8.43,26.75
6.999976873397827,-25.57,9.32,8.86,28.62
7.008347988128662,-26.54,7.11,5.98,28.11
7.018842935562134,-26.59,5.31,2.71,27.25
7.028820991516113,-24.53,4.18,-2.19,24.97
7.038790941238403,-20.06,3.48,-4.74,20.9
7.055695056915283,-16.45,2.19,-3.05,16.87
7.0583038330078125,-16.89,-0.52,2.52,17.08
7.0700531005859375,-18.37,-1.93,11.38,21.69
7.078351974487305,-17.31,-0.45,14.08,22.31
7.088593006134033,-16.72,1.96,6.75,18.13
7.098891973495483,-19.91,4.01,-6.05,21.19
7.109067916870117,-22.21,2.42,-6.54,23.27
7.1184539794921875,-11.39,4.67,-12.74,17.71
7.129301071166992,-4.25,14.06,-1.96,14.81
7.139043807983398,-4.87,21.91,2.1,22.54
7.155113935470581,1.59,19.7,1.09,19.79
7.158513069152832,7.21,3.16,-0.63,7.89
7.170352935791016,4.2,-8.25,-0.27,9.26
7.178565979003906,-6.04,-4.75,7.42,10.68
7.188780784606934,-16.3,3.82,1.88,16.84
7.198747873306274,-17.6,2.37,3.77,18.15
7.209249019622803,-5.19,-3.26,6.5,8.93
7.2186949253082275,6.3,-4.64,0.46,7.83
7.229447841644287,6.83,-1.29,-1.54,7.11
7.23932409286499,2.12,2.21,-0.47,3.09
7.255874872207642,-2.38,2.8,-0.92,3.78
7.258875846862793,-4.18,0.82,-0.16,4.26
7.270803928375244,-3.22,-0.21,-0.19,3.23
7.2787981033325195,-0.79,-1.23,1.8,2.31
7.289053916931152,0.5,-1.18,2.24,2.58
7.298795938491821,0.73,-0.26,2.26,2.38
7.309031963348389,0.75,-0.09,2.35,2.46
7.318851947784424,0.3,-0.64,2.36,2.46
7.32968807220459,-0.55,-2.04,3.2,3.83
7.339521884918213,-1.46,-2.91,3.46,4.75
7.3564488887786865,-1.04,-2.71,2.77,4.01
7.359275817871094,0.06,-1.06,0.7,1.27
7.3723509311676025,0.9,1.27,-2.04,2.56
7.379068851470947,1.77,3.65,-3.25,5.19
7.389944076538086,1.7,4.18,-4.64,6.47
7.401544094085693,1.12,3.04,-5.65,6.51
7.409629821777344,-0.08,1.79,-3.47,3.9
7.419883966445923,-0.99,0.36,-0.51,1.17
7.429734945297241,-0.33,-0.81,0.7,1.12
7.439846038818359,0.4,-0.8,0.87,1.24
7.4587788581848145,0.63,-0.53,1.47,1.68
7.461095809936523,1.0,-0.62,2.18,2.47
7.471625804901123,1.47,-0.44,2.18,2.66
7.479357957839966,1.12,0.29,1.48,1.87
7.490012884140015,-0.22,0.88,0.85,1.24
7.500524997711182,0.34,1.24,0.52,1.38
7.510529041290283,1.46,1.56,-0.09,2.13
7.5192649364471436,0.49,2.06,-0.92,2.3
7.530126094818115,-0.06,2.41,-1.04,2.62
7.539849758148193,0.85,2.3,-0.85,2.59
7.558039903640747,1.11,2.31,-0.77,2.67
7.559335947036743,0.8,2.49,-0.63,2.69
7.572081089019775,0.66,2.19,-0.33,2.31
7.579464912414551,0.97,1.84,0.27,2.09
7.58974289894104,1.47,1.75,0.36,2.31
7.600878953933716,1.86,1.6,-0.09,2.45
7.611025810241699,1.99,1.61,-0.64,2.63
7.620467901229858,2.13,2.06,-1.0,3.12
7.630102872848511,2.54,2.73,-1.23,3.92
7.639904022216797,3.22,3.47,-1.53,4.97
7.658284902572632,3.74,4.33,-1.52,5.92
7.659646034240723,4.63,5.12,-0.99,6.97
7.67214298248291,5.75,5.96,-0.27,8.28
7.679671764373779,6.88,6.73,0.63,9.64
7.689917087554932,8.21,7.64,0.77,11.24
7.701330900192261,9.63,9.57,1.25,13.63
7.71083402633667,11.28,12.3,3.09,16.97
7.720059871673584,13.04,11.63,5.89,18.43
7.730801105499268,17.1,8.79,10.03,21.68
7.740164756774902,14.36,6.65,2.7,16.05
7.758171081542969,-0.11,9.67,3.62,10.32
7.759792804718018,-3.67,12.81,11.65,17.69
7.773026943206787,5.35,9.8,14.8,18.53
7.779912948608398,12.24,7.51,9.3,17.1
7.790160894393921,12.96,7.52,11.23,18.72
7.801788806915283,10.48,8.51,13.28,18.93
7.810813903808594,6.42,9.84,9.37,15.02
7.820552825927734,1.48,11.23,2.87,11.68
7.830591917037964,-2.0,11.03,5.88,12.65
7.840478897094727,-2.85,8.21,6.45,10.82
7.859328985214233,-0.52,4.87,7.43,8.89
7.861509799957275,2.81,2.64,5.59,6.79
7.87349796295166,6.78,0.9,4.97,8.45
7.880169868469238,11.21,-1.13,4.68,12.2
7.8908679485321045,14.38,-2.86,4.81,15.43
7.900169849395752,15.09,-3.59,5.19,16.35
7.911340951919556,14.21,-3.32,5.43,15.57
7.920897960662842,13.27,-2.61,6.11,14.84
7.931419849395752,12.84,-1.79,7.07,14.76
7.940623760223389,12.39,-1.3,8.12,14.87
7.959711074829102,11.55,-1.83,8.58,14.5
7.961941957473755,10.24,-2.92,8.8,13.81
7.973942756652832,8.64,-3.93,8.77,12.92
7.980280876159668,7.05,-4.42,8.59,11.95
7.991053104400635,5.68,-4.25,8.51,11.07
8.000319004058838,4.56,-3.45,8.83,10.51
8.010600090026855,3.62,-2.42,8.76,9.78
8.02039384841919,2.8,-1.26,8.25,8.8
8.031174898147583,2.04,0.23,7.58,7.85
8.040777921676636,1.16,1.9,6.88,7.23
8.061779975891113,0.24,3.26,7.38,8.07
8.06293797492981,-0.69,4.08,8.04,9.04
8.074546813964844,-1.8,4.41,7.45,8.84
8.080639839172363,-3.15,4.6,6.27,8.39
8.091218948364258,-4.36,5.08,4.74,8.2
8.10062289237976,-5.13,5.82,3.09,8.35
8.111391067504883,-5.66,6.56,2.42,8.99
8.12123990058899,-6.18,7.48,2.2,9.94
8.130897045135498,-6.61,8.53,2.21,11.01
8.141231060028076,-7.01,9.62,2.22,12.1
8.166103839874268,-7.39,10.7,1.94,13.14
8.167295932769775,-7.99,11.85,1.95,14.42
8.170779943466187,-8.99,13.23,-1.02,16.02
8.181485891342163,-11.32,13.6,-2.19,17.82
8.191277980804443,-15.47,12.13,1.29,19.7
8.200869083404541,-19.49,9.2,2.34,21.67
8.212050914764404,-21.82,6.14,0.21,22.66
8.22094202041626,-20.76,4.61,0.39,21.26
8.231766939163208,-19.07,4.91,0.75,19.7
8.241410970687866,-19.58,5.3,-1.07,20.31
8.260881900787354,-21.67,4.36,-2.93,22.29
8.263071060180664,-23.96,1.3,-4.01,24.32
8.275382995605469,-25.73,-2.36,-4.2,26.17
8.28157377243042,-26.29,-3.22,-3.05,26.66
8.29185676574707,-25.65,-0.59,-2.59,25.78
8.301299095153809,-23.12,-0.84,-4.07,23.49
8.311368942260742,-7.8,9.25,-4.51,12.91
8.32176399230957,19.91,24.76,-19.55,37.3
8.331928968429565,31.51,12.13,-10.38,35.32
8.341831922531128,18.87,8.35,-2.51,20.78
8.360548973083496,1.41,10.27,7.27,12.66
8.362725973129272,-10.64,9.56,9.53,17.18
8.376053810119629,-10.96,-0.39,0.6,10.98
8.381493091583252,-9.31,-6.5,2.16,11.55
8.391561031341553,-10.46,-5.26,4.54,12.55
8.401525974273682,-12.59,-0.31,-5.09,13.58
8.411658763885498,-16.4,1.86,-9.23,18.91
8.42162275314331,-17.13,-1.98,-6.18,18.31
8.431647777557373,-10.11,-1.8,-6.54,12.17
8.442256927490234,3.47,6.16,-9.88,12.14
8.460300922393799,14.59,5.52,-3.01,15.88
8.461702823638916,19.68,-3.32,10.74,22.66
8.476456880569458,12.35,-6.06,11.32,17.81
8.481821060180664,0.59,-0.16,-1.68,1.78
8.49236798286438,-7.72,1.64,-4.98,9.33
8.501935958862305,-10.8,-0.02,-4.27,11.61
8.512757778167725,-8.98,-2.8,-0.32,9.41
8.522478103637695,-4.37,-2.93,2.87,5.99
8.532511949539185,1.72,-0.84,3.05,3.6
8.542378902435303,7.44,1.72,0.73,7.67
8.561892986297607,7.98,1.93,-0.71,8.24
8.564111948013306,3.96,0.45,1.06,4.12
8.57701587677002,-0.13,-0.55,0.63,0.84
8.582026958465576,-2.9,-0.29,-0.32,2.93
8.59209680557251,-3.59,0.36,-1.19,3.79
8.602506875991821,-2.38,0.41,-1.26,2.72
8.613173007965088,-0.37,0.26,-0.3,0.54
8.622689962387085,1.58,0.24,0.98,1.87
8.632461071014404,2.72,0.55,1.47,3.14
8.642601013183594,2.75,0.93,0.8,3.01
8.66745376586914,1.87,0.78,0.64,2.12
8.668647766113281,0.86,0.61,0.41,1.13
8.672156810760498,0.46,0.24,0.8,0.95
8.682928085327148,0.23,0.79,0.54,0.98
8.692457914352417,0.92,0.72,0.55,1.29
8.70236086845398,1.23,0.66,0.46,1.46
8.713239908218384,1.22,0.89,0.41,1.56
8.72439193725586,1.14,0.88,0.03,1.44
8.73299789428711,0.81,1.13,-0.18,1.4
8.742918968200684,0.55,1.49,0.08,1.59
8.767937898635864,0.75,1.66,0.29,1.84
8.769077777862549,1.23,1.66,0.43,2.11
8.772593975067139,1.58,1.64,0.25,2.29
8.783113956451416,1.64,1.61,0.11,2.3
8.79262399673462,1.7,1.69,-0.12,2.4
8.803329944610596,1.6,2.0,-0.54,2.61
8.813064098358154,1.52,2.6,-0.73,3.09
8.8244309425354,1.92,3.4,-0.49,3.93
8.833594799041748,2.75,4.33,-0.34,5.14
8.843292951583862,3.63,5.11,-0.32,6.27
8.86803388595581,4.61,5.95,0.02,7.52
8.869157791137695,5.67,6.9,0.4,8.93
8.872827053070068,6.98,8.81,-0.44,11.24
8.884054899215698,7.91,12.44,-0.75,14.76
8.893007755279541,9.49,14.8,2.69,17.78
8.903429985046387,12.34,16.08,3.2,20.52
8.913489818572998,12.63,16.45,4.29,21.17
8.92308497428894,14.28,14.08,6.18,20.98
8.93316388130188,16.27,10.18,9.98,21.63
8.943799018859863,16.59,8.4,7.47,20.03
8.96863079071045,14.39,8.56,3.72,17.15
8.969549894332886,12.35,6.14,4.32,14.45
8.972972869873047,11.29,3.19,-2.7,12.03
8.983216762542725,10.04,6.3,-13.44,17.91
8.993298053741455,8.56,10.56,1.41,13.66
9.003146886825562,6.43,10.4,5.81,13.53
9.013892889022827,3.69,7.62,-9.42,12.66
9.024369955062866,0.03,5.64,-10.09,11.55
9.034806966781616,-4.36,3.66,-4.07,6.99
9.043691873550415,-2.02,-0.69,-4.44,4.92
9.067370891571045,2.84,-3.61,-6.2,7.71
9.06827998161316,7.31,-5.6,-5.32,10.63
9.074690818786621,12.12,-7.67,-5.46,15.34
9.08361005783081,14.92,-8.46,-5.06,17.88
9.093538761138916,14.66,-7.55,-4.66,17.13
9.103932857513428,13.67,-5.51,-4.17,15.31
9.113656997680664,13.39,-3.06,-3.58,14.19
9.124959945678711,13.51,-0.82,-3.26,13.92
9.133795976638794,14.03,0.45,-4.29,14.67
9.144181966781616,13.74,0.71,-5.74,14.9
9.167712926864624,12.21,0.07,-6.51,13.83
9.168582916259766,10.07,-0.55,-6.57,12.03
9.174509048461914,7.86,-0.45,-6.42,10.15
9.184741973876953,5.53,0.48,-6.9,8.85
9.193880081176758,3.12,1.73,-7.1,7.94
9.203819751739502,1.19,2.81,-5.8,6.55
9.214258909225464,0.29,3.51,-4.83,5.97
9.226785898208618,0.47,3.54,-3.92,5.3
9.234418869018555,1.46,3.33,-3.38,4.96
9.244959831237793,2.4,3.76,-3.1,5.43
9.2705397605896,2.52,5.33,-2.81,6.53
9.271718978881836,1.56,7.67,-2.53,8.22
9.275551795959473,-0.41,10.2,-2.68,10.55
9.284118890762329,-3.17,12.65,-2.99,13.37
9.294283866882324,-6.55,14.95,-2.66,16.53
9.304879903793335,-10.16,16.26,-0.8,19.18
9.314817905426025,-13.43,15.99,0.78,20.89
9.327133893966675,-15.84,14.82,-0.25,21.69
9.334637880325317,-16.94,13.43,-2.15,21.72
9.344786882400513,-18.2,11.69,-2.85,21.81
9.368579864501953,-20.61,9.07,-2.33,22.63
9.369739055633545,-23.39,3.73,1.68,23.74
9.375946998596191,-26.13,-2.13,6.58,27.02
9.384331941604614,-27.56,-2.3,8.48,28.92
9.394638061523438,-28.87,-0.62,0.4,28.87
9.404759883880615,-29.71,0.03,-7.05,30.53
9.414971828460693,-29.27,0.67,-6.22,29.93
9.42628002166748,-26.7,1.99,-1.46,26.81
9.434659957885742,-22.99,2.95,2.49,23.31
9.444485902786255,-14.33,3.71,19.89,24.79
9.467801094055176,15.74,14.36,10.73,23.85
9.468703985214233,50.23,9.22,-7.82,51.66
9.476424932479858,55.1,-8.36,-10.05,56.62
9.484555959701538,21.69,-5.42,-5.49,23.02
9.494800090789795,-15.92,10.3,9.02,20.99
9.505766868591309,-41.6,27.73,4.74,50.21
9.515288829803467,-36.06,9.54,-4.65,37.58
9.526075839996338,-21.81,-2.33,-7.16,23.07
9.535432815551758,-20.18,0.49,-3.98,20.57
9.54503583908081,-9.97,-2.82,-3.1,10.81
9.569331884384155,1.05,-11.2,-7.62,13.58
9.570240020751953,4.13,-13.66,-6.49,15.67
9.575058937072754,2.24,-0.96,-1.41,2.81
9.584917068481445,7.86,15.21,16.31,23.64
9.595545768737793,17.49,1.33,13.37,22.05
9.605339050292969,13.71,-8.04,-6.99,17.36
9.615736961364746,10.98,-0.52,1.51,11.09
9.625142097473145,0.93,0.79,2.81,3.06
9.635340929031372,-9.68,-5.49,-1.73,11.26
9.64557695388794,-15.91,-3.77,-4.12,16.86
9.67054796218872,-13.88,4.22,-1.17,14.55
9.671741008758545,-5.57,3.03,-0.5,6.36
9.67501187324524,2.34,-1.91,-1.54,3.39
9.685211896896362,7.04,-1.67,-0.48,7.25
9.695250034332275,7.84,1.42,2.75,8.42
9.705854892730713,5.83,2.02,3.16,6.93
9.715688943862915,2.97,0.19,0.84,3.09
9.72560977935791,1.47,-0.42,0.04,1.52
9.735466003417969,0.11,-0.21,0.27,0.35
9.745945930480957,-1.67,-0.29,-0.19,1.7
9.772088050842285,-3.09,-0.29,-0.72,3.18
9.773242950439453,-3.41,-0.01,-0.99,3.55
9.775406837463379,-2.46,0.14,-0.61,2.53
9.785476922988892,-0.81,-0.17,0.14,0.83
9.795484066009521,0.89,-0.39,1.14,1.49
9.806151866912842,2.1,-0.34,1.37,2.53
9.815943956375122,2.47,-0.13,0.91,2.63
9.825613021850586,1.91,0.07,0.26,1.92
9.836381912231445,0.62,-0.16,0.06,0.64
9.846130847930908,-0.47,-0.47,0.4,0.77
9.870207786560059,-0.92,-0.39,0.51,1.12
9.871378898620605,-0.79,-0.11,0.25,0.83
9.875582933425903,-0.16,0.14,-0.23,0.31
9.88578987121582,0.33,0.24,-0.64,0.75
9.895802021026611,0.62,0.46,-0.6,0.97
9.906688928604126,0.85,0.74,-0.44,1.2
9.915843963623047,1.03,1.09,-0.39,1.54
9.925741910934448,1.22,1.53,-0.36,1.98
9.936525821685791,1.37,1.94,-0.48,2.42
9.946515083312988,1.41,2.2,-0.59,2.67
9.970874786376953,1.46,2.47,-0.74,2.96
9.972070932388306,1.6,2.89,-0.87,3.41
9.976027965545654,1.86,3.44,-0.79,3.98
9.986222982406616,2.26,4.12,-0.64,4.74
9.996044874191284,2.83,4.91,-0.23,5.67
10.006188869476318,3.67,5.78,0.27,6.85
10.01763391494751,4.83,6.71,0.67,8.29
10.026789903640747,6.23,7.32,0.7,9.63
10.036146879196167,7.6,8.04,0.38,11.07
10.047297954559326,8.36,9.79,-1.08,12.91
10.070198059082031,8.81,13.12,-1.21,15.84
10.071085929870605,10.0,17.57,2.07,20.32
10.076592922210693,13.01,19.76,2.01,23.74
10.08676290512085,16.76,17.92,0.33,24.53
10.096307754516602,19.38,11.44,-0.19,22.5
10.1072518825531,17.57,2.44,0.87,17.75
10.116365909576416,10.91,-2.78,5.97,12.74
10.127356052398682,5.78,-4.24,7.8,10.59
10.137374877929688,4.29,-3.48,8.07,9.77
10.14698600769043,3.02,-1.34,6.28,7.09
10.170509815216064,0.09,2.31,1.38,2.69
10.17171597480774,-3.38,6.65,-1.96,7.71
10.177497863769531,-5.81,8.18,3.0,10.47
10.18756103515625,-4.12,5.12,6.5,9.24
10.196578979492188,-0.7,1.2,6.27,6.42
10.206658840179443,2.55,-1.47,7.14,7.72
10.216694831848145,7.11,-5.65,7.83,11.99
10.22749376296997,12.83,-10.44,5.31,17.37
10.237267017364502,16.36,-13.54,4.33,21.67
10.247102975845337,15.25,-12.94,5.58,20.76
10.272480964660645,12.14,-9.61,6.24,16.69
10.273690938949585,9.29,-5.44,7.74,13.25
10.276839971542358,7.64,-1.14,9.23,12.03
10.286801815032959,7.38,1.73,8.42,11.32
10.296857833862305,7.32,2.96,4.73,9.2
10.307569026947021,6.53,2.68,-1.13,7.14
10.317337036132812,4.99,0.81,9.66,10.9
10.327131748199463,3.74,-1.27,10.78,11.48
10.33757495880127,1.92,-3.37,11.06,11.72
10.349181890487671,-0.3,-4.71,11.57,12.49
10.373459815979004,-2.22,-4.3,11.72,12.67
10.374671936035156,-3.43,-1.89,10.49,11.19
10.377126932144165,-3.73,0.98,8.84,9.64
10.38826608657837,-3.18,2.75,8.44,9.42
10.397109985351562,-2.12,2.78,8.25,8.96
10.408133029937744,-1.35,1.71,8.47,8.74
10.417266845703125,-1.3,1.19,8.83,9.0
10.427977085113525,-1.91,1.78,9.91,10.24
10.437748908996582,-2.72,2.82,10.84,11.52
10.44932508468628,-3.35,3.8,11.32,12.4
10.472461938858032,-3.65,4.68,11.37,12.82
10.473635911941528,-3.51,5.4,11.12,12.85
10.477295875549316,-3.23,5.89,11.06,12.94
10.487503051757812,-3.22,6.39,11.33,13.4
10.498621940612793,-3.78,6.65,11.91,14.15
10.507401943206787,-4.61,6.37,12.37,14.65
10.517775058746338,-5.42,5.85,12.16,14.54
10.528121948242188,-6.15,5.43,11.87,14.42
10.537954807281494,-6.71,5.05,11.82,14.49
10.55006194114685,-7.04,4.99,11.37,14.27
10.571541786193848,-7.45,4.82,7.69,11.74
10.572732925415039,-8.23,3.62,3.3,9.57
10.577668905258179,-10.32,1.88,6.09,12.12
10.587576866149902,-13.07,0.09,7.4,15.01
10.5988130569458,-16.03,-0.25,4.75,16.72
10.60866093635559,-17.04,1.97,3.76,17.56
10.617817878723145,-16.02,3.24,2.89,16.59
10.628453969955444,-15.5,1.66,0.09,15.58
10.638335943222046,-15.67,-0.41,-1.11,15.71
10.649995803833008,-15.74,-0.97,-1.27,15.82
10.671993970870972,-14.31,0.77,-1.46,14.4
10.672874927520752,-9.17,2.56,3.3,10.07
10.677852869033813,-4.25,3.54,11.58,12.83
10.68859577178955,-0.07,9.56,1.51,9.67
10.699284076690674,11.71,11.81,0.27,16.63
10.709053039550781,19.49,1.55,0.92,19.57
10.719401836395264,5.88,-7.38,5.78,11.06
10.72849988937378,-15.12,-5.94,7.93,18.07
10.738568782806396,-17.38,-1.13,3.02,17.67
10.751009941101074,-8.13,0.51,-1.3,8.24
10.77236294746399,-0.53,1.79,-4.55,4.91
10.773550987243652,4.04,1.7,-4.9,6.57
10.777999877929688,6.23,1.69,-0.27,6.46
10.788167953491211,4.51,0.31,3.9,5.97
10.799674034118652,-0.13,-1.87,0.68,1.99
10.808288097381592,-3.26,-0.9,-0.11,3.38
10.818713903427124,-3.49,0.78,0.24,3.58
10.829237937927246,-2.13,0.14,-0.67,2.23
10.839159965515137,-0.97,-0.43,-0.22,1.08
10.851797103881836,-0.21,-0.3,0.42,0.55
10.871953964233398,0.24,-0.69,0.42,0.84
10.872791767120361,0.1,-0.42,0.65,0.78
10.87829875946045,0.21,0.35,-0.47,0.62
10.8885498046875,0.49,0.66,-0.91,1.22
10.900239944458008,0.26,0.76,-0.73,1.08
10.908520936965942,-0.17,0.53,-1.29,1.4
10.918694019317627,-0.53,0.13,-0.14,0.56
10.929461002349854,-0.69,0.16,0.62,0.94
10.939111948013306,-0.46,-0.12,-1.52,1.59
10.950243949890137,-0.51,-0.57,0.08,0.76
10.965104103088379,-0.59,-0.23,-0.59,0.86
10.972312927246094,-0.2,0.16,-0.26,0.36
10.979431867599487,0.09,0.22,-0.27,0.35
10.989916801452637,0.26,-0.03,-0.2,0.32
11.00071382522583,0.32,-0.16,-0.41,0.54
11.008929967880249,0.2,-0.02,-0.34,0.39
11.018903970718384,0.09,0.23,0.21,0.32
11.031361103057861,0.23,0.5,-0.38,0.66
11.039528846740723,0.8,0.15,-2.31,2.44
11.05093789100647,0.04,0.05,-1.03,1.03
11.073503971099854,-0.72,1.2,-1.02,1.73
11.074708938598633,-0.37,1.12,-0.24,1.2
11.079031944274902,0.07,0.4,-0.14,0.42
11.090230941772461,0.12,0.05,-0.11,0.17
11.09909200668335,-0.18,0.32,0.33,0.49
11.109100818634033,-0.19,0.61,0.4,0.75
11.119557857513428,0.01,0.41,0.23,0.47
11.129199028015137,0.01,0.08,0.02,0.08
11.139660835266113,-0.25,-0.16,0.23,0.37
11.149312019348145,-0.4,-0.31,0.96,1.08
11.172643899917603,-0.15,-0.55,1.22,1.34
11.17384386062622,0.63,-0.42,1.57,1.74
11.179260969161987,1.22,0.65,1.77,2.24
11.190193891525269,1.17,0.65,0.82,1.56
11.199766874313354,0.51,-0.21,0.54,0.77
11.210412979125977,-0.13,-0.22,0.36,0.44
11.220899105072021,0.02,0.6,0.26,0.65
11.229530811309814,0.6,1.16,0.98,1.63
11.240060806274414,1.26,1.29,1.52,2.35
11.249644756317139,1.68,1.61,1.91,3.01
11.266727924346924,1.99,1.92,2.2,3.53
11.274120807647705,2.07,2.25,1.78,3.53
11.279542922973633,2.12,2.6,1.34,3.61
11.289581775665283,1.99,2.58,0.6,3.31
11.299580097198486,1.68,3.06,-0.14,3.49
11.310754776000977,1.5,4.65,-0.35,4.89
11.31959581375122,1.83,4.83,-0.3,5.17
11.33100175857544,2.46,3.6,-0.54,4.39
11.340238094329834,2.71,2.82,0.17,3.91
11.349922895431519,3.19,3.19,1.75,4.83
11.367085933685303,4.77,4.06,3.78,7.31
11.375010967254639,6.24,4.99,6.21,10.11
11.379808902740479,6.84,4.91,8.96,12.29
11.389869928359985,6.65,4.65,10.65,13.38
11.401705980300903,5.99,4.34,10.62,12.94
11.410988807678223,5.97,2.53,9.97,11.89
11.419893980026245,3.31,1.48,10.38,10.99
11.431282043457031,-10.63,8.74,9.19,16.54
11.440576076507568,-20.17,11.42,9.15,24.91
11.450657844543457,-9.58,3.01,7.33,12.43
11.467448949813843,-6.03,1.71,4.49,7.71
11.474908828735352,-17.3,7.86,8.96,21.0
11.48025393486023,-15.59,7.54,5.55,18.18
11.490135908126831,-4.66,3.97,3.16,6.88
11.50013780593872,3.61,3.2,4.71,6.74
11.51022481918335,11.51,2.51,2.96,12.14
11.522180080413818,18.86,2.53,0.69,19.04
11.530309915542603,22.13,4.63,-0.61,22.61
11.540781021118164,20.64,6.59,-0.12,21.66
11.550407886505127,17.29,6.76,1.94,18.66
11.575629949569702,14.45,4.86,3.73,15.69
11.576838970184326,12.38,1.72,5.15,13.51
11.580432891845703,10.9,-1.45,6.02,12.53
11.590413093566895,9.8,-3.88,5.5,11.88
11.60087776184082,8.75,-5.11,4.48,11.07
11.611193895339966,7.67,-5.07,4.08,10.05
11.621295928955078,6.81,-3.99,4.1,8.89
11.630997896194458,6.36,-2.56,4.13,8.0
11.640938758850098,6.26,-1.63,2.57,6.96
11.65103006362915,6.81,-1.01,-0.75,6.92
11.668279886245728,7.36,0.3,-2.96,7.93
11.67631196975708,7.37,1.79,-3.33,8.28
11.68056583404541,6.79,2.35,-2.35,7.55
11.691085815429688,5.85,1.51,-1.84,6.31
11.701778888702393,4.96,-0.12,-2.05,5.36
11.711814880371094,4.42,-1.2,-2.44,5.18
11.721189975738525,4.24,-0.96,-2.61,5.07
11.731262922286987,4.39,0.34,-2.91,5.27
11.741273880004883,4.7,1.84,-3.5,6.14
11.751024961471558,4.8,3.05,-4.11,7.01
11.768547058105469,4.3,4.1,-4.56,7.48
11.776086807250977,3.32,5.09,-4.5,7.56
11.781153917312622,2.19,5.88,-3.9,7.38
11.790884971618652,0.86,6.22,-3.56,7.21
11.801419973373413,-0.64,6.34,-3.7,7.36
11.812056064605713,-2.02,6.58,-4.24,8.08
11.822386980056763,-3.24,7.19,-4.36,9.01
11.831535816192627,-4.37,7.94,-4.2,9.98
11.841395854949951,-5.55,8.67,-4.19,11.11
11.85119104385376,-6.83,9.17,-3.74,12.03
11.86965274810791,-8.18,9.33,-2.73,12.7
11.878427982330322,-9.56,9.37,-1.95,13.52
11.881282806396484,-11.14,9.28,-1.31,14.55
11.891315937042236,-13.15,9.0,-1.46,16.0
11.90130090713501,-15.57,8.07,-2.08,17.66
11.911399841308594,-18.35,6.21,-1.98,19.47
11.92133092880249,-21.52,2.87,-0.93,21.73
11.93209195137024,-24.87,-1.56,0.48,24.92
11.941720962524414,-27.36,-5.13,3.4,28.04
11.951718807220459,-26.62,-4.74,3.06,27.21
11.969185829162598,-23.9,-1.29,-0.09,23.93
11.977027893066406,-21.76,1.49,-1.65,21.87
11.98166799545288,-19.24,3.1,-1.16,19.52
11.991829872131348,-14.59,2.45,5.63,15.82
12.00213098526001,-2.96,4.06,11.87,12.88
12.011499881744385,17.56,10.15,-0.12,20.28
12.022610902786255,25.68,7.94,-0.59,26.88
12.032264947891235,14.57,5.58,-7.94,17.5
12.042078018188477,1.84,7.12,-20.53,21.8
12.051794052124023,-14.25,11.04,4.27,18.52
12.069406032562256,-18.31,5.2,5.03,19.68
12.07795786857605,-10.4,-2.86,-0.56,10.8
12.081793785095215,-7.87,-4.1,1.63,9.02
12.091851949691772,-9.03,-2.5,4.35,10.33
12.10188889503479,-9.24,-0.71,-1.72,9.42
12.111960887908936,-9.16,0.01,-3.97,9.98
12.123027801513672,-9.48,0.03,-1.28,9.56
12.132642984390259,-8.16,0.15,-2.11,8.42
12.143009901046753,-2.76,2.36,-8.92,9.63
12.152038097381592,6.13,6.16,-8.32,12.03
12.16916275024414,12.61,2.51,0.08,12.85
12.178075790405273,12.39,-4.4,4.64,13.94
12.182036876678467,5.22,-4.37,8.57,10.94
12.19202184677124,-1.53,-1.44,8.64,8.89
12.20215892791748,-3.8,-0.84,1.88,4.32
12.212238788604736,-3.27,0.15,-5.33,6.25
12.223651885986328,-3.11,0.98,-6.35,7.13
12.232119083404541,-3.82,-0.34,-1.82,4.24
12.242138862609863,-3.24,-1.74,2.48,4.43
12.252723932266235,-0.51,-1.44,4.18,4.45
12.269858837127686,2.82,-0.61,2.96,4.13
12.279898881912231,4.74,0.24,0.27,4.75
12.282315969467163,4.09,0.92,-0.5,4.22
12.292407035827637,1.59,0.0,0.44,1.64
12.302893877029419,-0.86,-1.02,1.09,1.72
12.313730955123901,-2.42,-0.94,1.09,2.81
12.325149059295654,-2.93,-0.76,0.0,3.02
12.332587957382202,-2.4,-0.02,-1.17,2.67
12.342857837677002,-1.02,0.8,-0.96,1.61
12.352920055389404,0.79,0.32,-0.36,0.92
12.3711678981781,1.88,-0.24,0.98,2.13
12.380361080169678,2.05,-0.01,1.94,2.82
12.382577896118164,1.74,0.54,1.46,2.33
12.39254903793335,1.31,0.64,0.26,1.48
12.403889894485474,0.61,0.52,-0.38,0.88
12.413193941116333,-0.31,0.35,-0.09,0.47
12.425833940505981,-0.76,-0.05,0.26,0.8
12.432950973510742,-0.45,0.0,0.42,0.61
12.443205833435059,0.33,0.35,0.43,0.64
12.452764987945557,1.25,1.91,1.94,2.99
12.470820903778076,2.54,0.67,1.78,3.17
12.472662925720215,2.78,-1.1,1.12,3.19
12.483418941497803,1.58,-0.05,2.64,3.07
12.492778778076172,0.8,1.03,1.93,2.32
12.502875804901123,0.86,1.65,-0.24,1.87
12.512919902801514,0.79,2.0,-1.25,2.48
12.522925853729248,0.49,2.33,-1.44,2.78
12.533513069152832,0.27,2.74,-1.64,3.2
12.543354988098145,0.31,2.89,-2.5,3.83
12.553349018096924,0.5,2.84,-2.86,4.06
12.571069955825806,0.93,3.12,-2.21,3.93
12.572957992553711,1.59,3.78,-1.12,4.25
12.583579063415527,2.44,4.38,-0.03,5.01
12.593061923980713,3.38,4.58,0.96,5.77
12.603195905685425,4.13,4.71,1.53,6.44
12.613107919692993,4.93,5.18,1.15,7.24
12.623326778411865,5.49,6.82,-1.58,8.89
12.633810043334961,5.25,8.72,1.34,10.26
12.643632888793945,6.53,10.31,2.99,12.56
12.653623104095459,9.21,10.91,1.45,14.35
12.671338081359863,11.88,11.27,1.84,16.47
12.673369884490967,14.93,11.45,2.64,18.99
12.683311939239502,17.73,10.53,2.09,20.72
12.694305896759033,19.48,8.4,1.14,21.24
12.704638957977295,17.77,5.42,1.24,18.61
12.7134108543396,8.92,4.2,2.79,10.24
12.723488807678223,0.92,2.81,12.9,13.23
12.734232902526855,0.98,2.39,10.69,10.99
12.744042873382568,0.56,3.69,7.17,8.08
12.753726959228516,-2.22,7.44,4.13,8.79
12.771721839904785,-4.73,9.72,1.56,10.92
12.773521900177002,-6.06,9.95,3.01,12.03
12.78361177444458,-2.88,7.79,6.36,10.46
12.793526887893677,2.39,3.93,4.32,6.31
12.804229974746704,9.43,-1.11,2.35,9.78
12.813684940338135,17.42,-7.06,-0.22,18.79
12.823709964752197,20.82,-9.95,-0.81,23.08
12.834451913833618,18.69,-8.46,0.69,20.52
12.844258785247803,15.32,-5.45,2.98,16.53
12.854094982147217,13.12,-2.09,6.32,14.71
12.871947765350342,11.7,0.31,8.43,14.42
12.87373399734497,10.96,0.29,8.83,14.07
12.88434886932373,10.55,-1.78,7.74,13.2
12.893839836120605,9.78,-3.73,6.5,12.32
12.904019832611084,8.3,-4.57,5.73,11.07
12.914154052734375,6.31,-4.35,5.55,9.46
12.923991918563843,4.11,-3.44,5.67,7.8
12.934989929199219,2.03,-2.15,5.47,6.21
12.944910049438477,0.5,-0.71,4.86,4.93
12.954364776611328,-0.2,0.68,3.97,4.03
12.971967935562134,0.01,1.69,3.39,3.78
12.973995923995972,0.98,1.45,4.77,5.08
12.984736919403076,1.9,0.28,5.32,5.65
12.994081020355225,2.28,-0.64,5.4,5.89
13.005383968353271,2.45,-0.54,5.71,6.23
13.014266967773438,2.58,0.32,6.09,6.62
13.024325847625732,2.73,1.22,6.11,6.8
13.034821033477783,2.88,1.93,5.74,6.7
13.044921875,2.87,2.67,5.27,6.56
13.05467700958252,2.47,3.9,3.72,5.92
13.072174072265625,1.62,5.23,3.04,6.26
13.074241876602173,0.68,6.55,5.12,8.34
13.08456802368164,-0.23,8.17,5.94,10.1
13.094500064849854,-1.54,10.15,5.9,11.84
13.104671001434326,-2.94,12.42,2.05,12.92
13.115043878555298,-4.23,13.79,-0.9,14.45
13.125396966934204,-5.86,14.19,-0.35,15.35
13.13456678390503,-8.28,14.22,-1.14,16.49
13.14502477645874,-12.59,14.14,-3.28,19.21
13.155276775360107,-18.99,12.81,-4.41,23.32
13.172471046447754,-26.18,8.66,-4.46,27.93
13.174637794494629,-32.13,2.68,-4.54,32.55
13.185084819793701,-37.01,-3.44,-6.52,37.73
13.194860935211182,-37.32,-5.09,-5.53,38.06
13.205169916152954,-33.4,-2.77,-2.84,33.63
13.215367794036865,-30.48,-7.17,-3.16,31.47
13.224767923355103,-14.76,1.72,-4.85,15.63
13.234807014465332,-6.54,17.87,-0.94,19.05
13.245409965515137,-3.77,22.55,-10.82,25.29
13.255866050720215,2.74,22.29,-16.45,27.83
13.27114486694336,6.38,12.4,-10.44,17.42
13.274932861328125,2.57,3.07,-1.71,4.35
13.285140037536621,-0.23,1.03,2.78,2.97
13.294986963272095,0.79,-1.81,0.19,1.98
13.306184768676758,-2.71,-4.93,1.13,5.73
13.315085887908936,-11.93,-5.96,-0.34,13.34
13.325969934463501,-15.59,-3.38,0.89,15.97
13.335712909698486,-10.67,2.53,8.19,13.68
13.34694790840149,-3.64,-0.41,8.53,9.28
13.355240821838379,2.23,-3.92,-2.03,4.94
13.373066902160645,3.39,2.05,-12.87,13.46
13.375046968460083,5.1,10.21,-15.31,19.09
13.385802984237671,6.26,1.97,0.22,6.56
13.395217895507812,1.47,-7.28,12.89,14.87
13.406430959701538,-3.02,-3.76,8.81,10.04
13.41530704498291,-3.48,0.75,-2.95,4.62
13.426414966583252,-1.61,1.1,-5.97,6.28
13.436370849609375,-0.2,-1.31,0.94,1.62
13.44757890701294,-0.26,-2.82,6.95,7.5
13.455770015716553,-0.41,-0.53,2.58,2.66
13.472681045532227,0.72,2.06,-3.22,3.88
13.475329875946045,1.65,1.57,-3.23,3.95
13.485987901687622,0.57,0.34,-0.11,0.67
13.49649691581726,-1.09,-0.18,1.5,1.86
13.506162881851196,-1.04,0.06,0.02,1.04
13.515553951263428,0.04,0.34,-1.16,1.2
13.526488780975342,0.62,0.07,-0.48,0.78
13.535928964614868,0.4,-0.34,0.79,0.94
13.547906875610352,0.04,-0.27,0.8,0.84
13.555924892425537,-0.04,-0.06,-0.06,0.09
13.573123931884766,0.0,0.09,-0.07,0.11
13.575706958770752,0.06,-0.01,0.3,0.3
13.585896968841553,0.16,0.21,0.29,0.39
13.596951961517334,0.27,0.49,-0.14,0.57
13.606914043426514,0.49,0.62,-0.32,0.85
13.616231918334961,0.61,0.74,-0.17,0.97
13.62621784210205,0.48,0.73,-0.09,0.87
13.636378765106201,0.32,0.72,-0.05,0.78
13.648545980453491,0.39,0.81,0.21,0.92
13.656087875366211,0.66,0.86,0.57,1.22
13.673717975616455,1.02,0.9,0.92,1.64
13.675875902175903,1.26,1.01,1.31,2.07
13.686133861541748,1.46,1.14,1.73,2.53
13.69738483428955,1.66,1.35,1.71,2.73
13.706192016601562,1.61,1.49,1.13,2.46
13.716135025024414,1.36,1.23,0.29,1.85
13.727268934249878,1.32,1.23,-0.77,1.96
13.73660397529602,0.95,1.84,-1.15,2.36
13.748685836791992,0.77,2.51,-1.29,2.92
13.756263971328735,1.47,3.77,-0.03,4.04
13.774184942245483,2.83,5.28,2.32,6.42
13.776124000549316,4.93,6.17,4.1,8.89
13.786571025848389,7.44,8.44,4.53,12.12
13.797914028167725,9.45,13.74,4.57,17.29
13.806786060333252,11.62,16.53,7.57,21.57
13.816978931427002,14.44,16.08,6.51,22.57
13.826612949371338,15.15,15.44,6.69,22.64
13.837291955947876,16.48,15.39,6.64,23.5
13.849119901657104,20.7,10.6,3.99,23.59
13.856399059295654,18.59,4.6,3.38,19.44
13.874467849731445,11.25,4.0,5.03,12.95
13.876358032226562,6.15,3.64,6.35,9.56
13.88677978515625,5.58,1.94,6.35,8.67
13.898236751556396,6.8,1.24,3.16,7.6
13.90658688545227,5.36,2.5,0.11,5.91
13.916661977767944,1.33,4.87,-3.84,6.34
13.927603960037231,0.03,5.24,-7.23,8.92
13.937582015991211,1.98,2.02,-10.06,10.45
13.94950795173645,3.97,-1.42,-7.71,8.78
13.956934928894043,5.62,-3.32,-2.23,6.89
13.974565982818604,6.63,-5.24,0.15,8.45
13.976685047149658,8.21,-6.7,1.24,10.66
13.986906051635742,10.5,-6.68,2.86,12.76
13.998763084411621,12.23,-5.56,2.4,13.64
14.007999897003174,13.26,-4.42,0.37,13.98
14.018548965454102,13.99,-3.21,-1.7,14.45
14.027458906173706,14.29,-1.91,-4.17,15.0
14.03745698928833,13.82,-0.71,-6.72,15.38
14.048070907592773,12.45,0.08,-8.69,15.18
14.057540893554688,10.54,0.63,-9.78,14.39
14.074666023254395,8.51,1.07,-9.95,13.13
14.076964855194092,6.57,1.33,-9.41,11.55
14.087187767028809,4.99,1.19,-8.8,10.18
14.097100973129272,4.0,0.62,-8.49,9.4
14.10727596282959,3.8,-0.03,-8.24,9.07
14.117934942245483,4.21,-0.24,-7.98,9.02
14.12771487236023,4.84,0.23,-7.57,8.98
14.137602806091309,5.36,1.33,-7.32,9.16
14.14781904220581,5.51,2.89,-7.23,9.53
14.157998085021973,5.25,4.62,-7.26,10.08
14.175440788269043,4.46,6.17,-7.43,10.63
14.177469968795776,3.04,7.27,-7.75,11.05
14.18750786781311,1.15,7.77,-7.87,11.11
14.197978019714355,-0.79,7.96,-7.55,10.99
14.207552909851074,-2.43,8.3,-6.69,10.93
14.218137979507446,-3.66,8.99,-5.49,11.15
14.22783899307251,-4.56,9.97,-4.46,11.83
14.238089084625244,-5.21,11.06,-4.0,12.86
14.247914791107178,-5.84,11.74,-4.29,13.79
14.257957935333252,-6.45,12.03,-5.01,14.54
14.27568006515503,-6.68,12.1,-5.92,15.03
14.277546882629395,-6.6,11.37,-5.77,14.35
14.287643909454346,-7.27,10.01,-5.96,13.73
14.298054933547974,-8.66,8.29,-5.15,13.04
14.307955980300903,-10.58,5.98,-3.15,12.55
14.317590951919556,-13.75,3.65,-1.33,14.28
14.32890796661377,-18.29,2.13,-4.23,18.89
14.337660789489746,-24.77,0.59,-9.84,26.65
14.348408937454224,-31.68,-2.9,-10.53,33.5
14.35808801651001,-31.8,-3.22,-5.18,32.37
14.37507677078247,-24.36,0.43,-2.12,24.45
14.377722978591919,-17.68,3.2,-0.08,17.96
14.389160871505737,-10.82,4.27,13.72,17.98
14.39830207824707,3.82,1.86,18.52,19.0
14.408092021942139,21.57,2.18,-2.93,21.87
14.417812824249268,20.0,9.32,-1.14,22.09
14.428961753845215,10.98,7.99,1.98,13.72
14.438480854034424,1.51,4.47,-4.39,6.44
14.448553085327148,-15.13,5.82,-4.74,16.88
14.458237886428833,-23.99,2.44,-3.28,24.33
14.475275039672852,-13.72,1.44,-0.09,13.79
14.478095054626465,-8.23,0.89,2.92,8.77
14.489453792572021,-4.84,-0.39,2.35,5.39
14.498692989349365,-0.21,-2.96,-1.9,3.52
14.50880479812622,0.7,-5.23,-2.02,5.65
14.518544912338257,-1.84,-3.71,2.3,4.73
14.528290748596191,-5.0,-0.49,3.45,6.09
14.538724899291992,-6.11,3.07,-0.66,6.86
14.548851013183594,-1.57,6.12,-7.18,9.56
14.558525085449219,3.68,6.97,-6.67,10.32
14.576336860656738,6.07,4.2,-0.62,7.4
14.578243970870972,7.02,-0.6,2.12,7.35
14.590019941329956,5.61,-5.83,1.76,8.28
14.598286867141724,0.98,-6.09,2.97,6.84
14.609592914581299,-3.62,-1.56,4.03,5.63
14.618369102478027,-5.85,1.36,1.95,6.31
14.629384994506836,-4.71,1.88,-2.21,5.53
14.63881778717041,-1.15,1.23,-3.73,4.09
14.648766040802002,1.5,-0.1,-1.94,2.45
14.658987998962402,2.31,-1.0,0.29,2.53
14.676821947097778,1.54,-0.91,1.52,2.34
14.678564071655273,0.29,0.24,1.67,1.71
14.690648078918457,-0.18,1.31,0.51,1.41
14.699113845825195,0.29,1.34,-0.95,1.66
14.708831787109375,0.71,0.74,-1.51,1.82
14.718669891357422,0.33,0.15,-1.02,1.08
14.72975778579712,-0.67,-0.22,-0.32,0.77
14.739304065704346,-1.61,-0.32,0.27,1.66
14.749151945114136,-1.66,-0.26,0.46,1.74
14.759190082550049,-0.61,-0.09,0.39,0.72
14.776748895645142,0.81,0.15,0.17,0.84
14.77918791770935,1.61,0.44,0.34,1.7
14.791094779968262,1.53,0.3,0.49,1.63
14.7988920211792,1.0,0.04,0.48,1.1
14.810119867324829,0.44,-0.01,0.43,0.61
14.818893909454346,0.11,0.15,0.26,0.31
14.829758882522583,-0.08,0.39,0.0,0.39
14.839524984359741,0.03,0.43,-0.01,0.43
14.849215984344482,0.43,0.46,0.26,0.68
14.859647750854492,0.75,0.58,0.63,1.13
14.878444910049438,1.08,0.85,1.11,1.76
14.880769968032837,1.25,1.15,1.62,2.34
14.891536951065063,1.47,-0.21,0.77,1.67
14.899652004241943,1.01,-0.13,1.47,1.78
14.91040587425232,0.46,0.59,1.33,1.52
14.919189929962158,0.52,1.28,-0.27,1.4
14.92934799194336,0.65,1.81,-1.33,2.33
14.9393789768219,0.63,1.99,-1.22,2.41
14.950294017791748,1.0,2.12,-0.52,2.4
14.960002899169922,1.62,2.51,-0.16,2.99
14.977344989776611,2.08,2.98,-0.53,3.67
14.97937798500061,2.34,3.41,-0.69,4.19
14.991995811462402,2.71,3.68,-0.46,4.59
14.999443054199219,3.25,4.03,-0.37,5.19
15.009631872177124,3.66,4.57,-0.4,5.86
15.019497871398926,3.98,5.34,-0.37,6.67
15.030797958374023,4.48,6.21,-0.47,7.67
15.040445804595947,5.21,7.62,-1.94,9.43
15.05020809173584,5.65,8.81,0.8,10.49
15.06003999710083,7.09,9.96,2.82,12.54
15.07752799987793,9.51,11.58,1.86,15.09
15.079605102539062,12.47,13.46,2.37,18.5
15.092150926589966,16.61,14.64,2.47,22.27
15.100343942642212,20.81,14.85,1.21,25.59
15.109899997711182,23.95,12.3,0.19,26.92
15.12086296081543,22.07,6.26,-0.84,22.95
15.129913806915283,13.32,1.61,1.15,13.46
15.139883041381836,4.44,2.23,14.04,14.89
15.150600910186768,1.97,4.08,9.64,10.65
15.160274028778076,-0.14,5.13,6.66,8.4
15.178348064422607,-1.47,8.28,-3.95,9.29
15.179894924163818,-1.53,10.19,0.09,10.3
15.193043947219849,0.13,10.91,3.98,11.61
15.19996976852417,3.23,8.72,4.27,10.23
15.210134029388428,5.04,4.9,1.77,7.24
15.221251010894775,4.52,1.91,-0.05,4.9
15.23080587387085,4.78,-0.62,-0.22,4.82
15.240555763244629,6.7,-3.12,-0.1,7.39
15.25057077407837,9.21,-6.0,-0.15,10.99
15.26058292388916,12.15,-8.65,-1.13,14.95
15.279078960418701,13.94,-9.13,-1.63,16.74
15.281331062316895,14.14,-7.29,-0.4,15.91
15.293497085571289,13.09,-5.22,1.33,14.15
15.300189971923828,12.51,-3.35,2.46,13.18
15.310425758361816,12.8,-2.26,2.01,13.15
15.32176685333252,13.5,-2.01,0.66,13.66
15.330473899841309,13.66,-2.27,-0.76,13.86
15.340269088745117,12.76,-2.43,-1.64,13.09
15.351017951965332,10.91,-2.14,-2.08,11.31
15.360931873321533,8.72,-1.44,-2.55,9.19
15.379430770874023,6.73,-0.38,-3.43,7.56
15.381672859191895,4.81,1.52,-6.36,8.11
15.393756866455078,3.11,3.48,-7.85,9.13
15.400454044342041,2.12,4.73,-4.68,6.98
15.411220073699951,1.81,5.11,-4.44,7.0
15.422138929367065,1.87,4.76,-4.37,6.72
15.430680751800537,2.09,5.28,-5.04,7.59
15.441094875335693,2.1,7.08,-5.67,9.31
15.450849056243896,1.53,9.67,-5.68,11.31
15.461030006408691,0.37,13.08,-5.06,14.02
15.479732990264893,-1.57,17.54,-3.74,18.0
15.482004880905151,-4.99,22.0,-2.71,22.72
15.494380950927734,-10.22,24.01,-1.21,26.12
15.501163005828857,-15.54,22.47,1.06,27.34
15.511401891708374,-19.6,18.59,-0.88,27.02
15.5227370262146,-23.1,13.94,-5.98,27.63
15.531362056732178,-25.77,9.02,-9.96,29.06
15.541438102722168,-29.09,4.13,-10.29,31.13
15.551355838775635,-35.95,-2.97,-5.28,36.45
15.561429977416992,-39.88,-7.03,1.94,40.54
15.583132982254028,-37.97,-3.53,-5.39,38.51
15.583996772766113,-30.84,1.25,-8.09,31.9
15.591460943222046,-24.58,-3.82,1.21,24.9
15.601545810699463,-3.79,11.65,5.6,13.47
15.611201763153076,20.92,18.06,-7.6,28.66
15.623097896575928,30.1,9.34,1.3,31.54
15.631436824798584,20.95,2.32,-25.6,33.16
15.64113998413086,-0.82,5.98,-12.73,14.08
15.651200771331787,-23.0,16.27,9.47,29.72
15.66205883026123,-19.56,8.72,-3.5,21.69
15.678651809692383,-11.84,-1.88,0.04,11.98
15.681285858154297,-14.37,-3.61,1.75,14.91
15.695292949676514,-10.19,-3.93,1.58,11.03
15.70130205154419,-3.69,-5.08,0.6,6.3
15.711464881896973,-0.44,-5.73,-0.73,5.79
15.721377849578857,-2.28,-1.75,2.86,4.05
15.731430053710938,-4.69,3.83,3.16,6.83
15.742344856262207,0.53,6.16,-8.63,10.61
15.751995086669922,10.68,7.35,-12.28,17.85
15.761929035186768,13.65,1.48,0.9,13.75
15.779733896255493,7.33,-5.47,6.47,11.2
15.781413078308105,-4.52,-3.33,7.38,9.27
15.795670986175537,-10.92,-0.81,2.73,11.28
15.801506042480469,-8.03,0.11,-4.74,9.32
15.812686920166016,-1.71,0.23,-6.98,7.19
15.822086811065674,1.9,-0.41,-2.27,2.98
15.832427978515625,2.01,-0.85,3.04,3.74
15.841636896133423,1.71,0.2,4.73,5.03
15.852335929870605,2.52,1.25,2.6,3.83
15.862173080444336,2.98,1.04,-0.97,3.3
15.881140947341919,1.78,0.7,-2.41,3.07
15.883342981338501,-0.67,-0.15,-1.44,1.59
15.896234035491943,-2.67,-0.88,0.21,2.81
15.901808977127075,-2.79,-0.84,1.18,3.14
15.91233491897583,-1.19,-0.51,0.83,1.53
15.922279834747314,0.72,-0.01,-0.04,0.72
15.933027982711792,1.85,0.61,-0.08,1.94
15.942372798919678,2.35,0.45,0.27,2.4
15.952417850494385,2.23,0.06,1.68,2.79
15.962707042694092,1.11,-1.05,0.04,1.52
15.983340978622437,-1.25,0.52,0.7,1.52
15.984519004821777,-1.14,0.23,-0.3,1.2
15.996654033660889,-0.04,0.17,-1.1,1.11
16.002010822296143,0.15,0.71,-0.74,1.03
16.01267695426941,0.06,0.78,-0.23,0.81
16.022613048553467,0.42,0.75,0.06,0.86
16.03235387802124,0.85,0.93,0.32,1.29
16.04206895828247,0.93,1.11,0.37,1.49
16.054265022277832,0.83,1.32,0.76,1.73
16.06271505355835,0.84,1.39,1.26,2.05
16.083364963531494,1.06,1.43,1.34,2.22
16.08452081680298,1.28,1.44,1.58,2.49
16.09709596633911,1.62,1.46,1.76,2.8
16.102367877960205,1.98,1.82,1.9,3.29
16.112433910369873,2.34,2.34,1.77,3.75
16.122384071350098,2.68,2.87,1.18,4.1
16.13254976272583,2.81,3.4,-0.06,4.41
16.14247488975525,2.64,3.7,-1.26,4.71
16.15334701538086,2.45,4.0,-1.84,5.03
16.162935972213745,2.67,4.44,-1.85,5.5
16.181123971939087,3.39,5.03,-1.36,6.21
16.18246293067932,4.25,5.8,-1.06,7.26
16.197596073150635,5.2,7.48,-1.86,9.29
16.202563762664795,6.18,10.11,-0.98,11.88
16.21274185180664,7.75,11.61,2.04,14.1
16.222783088684082,10.19,12.38,0.83,16.05
16.233180046081543,12.8,12.94,-1.36,18.25
16.242775917053223,15.68,13.66,-3.0,21.01
16.252760887145996,17.78,12.59,-4.73,22.29
16.26268482208252,16.95,7.17,-10.44,21.15
16.28221297264099,10.72,1.82,-6.14,12.48
16.28446888923645,3.83,1.48,19.79,20.21
16.29811191558838,0.75,4.43,10.18,11.12
16.302859783172607,-0.3,7.69,7.64,10.84
16.312935829162598,-0.19,11.09,-1.4,11.17
16.322956085205078,1.15,12.69,-5.97,14.07
16.333752870559692,5.04,10.34,-1.91,11.66
16.343540906906128,8.94,5.47,-0.39,10.48
16.353436946868896,11.75,0.2,-2.2,11.95
16.36343002319336,12.79,-4.24,-5.66,14.61
16.384861946105957,12.18,-7.2,-7.59,16.05
16.386077880859375,10.41,-6.68,-7.11,14.26
16.398622035980225,8.76,-3.77,-5.36,10.93
16.40313196182251,7.81,-0.33,-3.74,8.66
16.413245916366577,7.68,1.95,-3.55,8.68
16.423819065093994,7.78,2.26,-6.36,10.29
16.434216022491455,7.8,-0.06,-8.58,11.59
16.44550895690918,8.26,-2.99,-6.42,10.88
16.453670978546143,8.7,-4.26,-6.32,11.56
16.46371293067932,8.92,-4.17,-6.12,11.59
16.488944053649902,8.88,-3.35,-5.44,10.93
16.490137100219727,8.84,-2.06,-5.49,10.6
16.493349075317383,8.82,-0.78,-6.12,10.76
16.50351595878601,8.58,0.29,-6.81,10.95
16.513365983963013,7.98,1.09,-7.26,10.84
16.523406982421875,6.91,1.42,-7.14,10.03
16.533556938171387,5.52,1.31,-6.75,8.81
16.54611301422119,4.14,1.17,-6.47,7.76
16.554080963134766,2.98,1.5,-6.13,6.97
16.563973903656006,2.19,2.42,-5.67,6.54
16.59036087989807,1.93,3.77,-5.39,6.85
16.5915470123291,1.85,5.28,-5.48,7.83
16.594614028930664,1.56,6.57,-5.73,8.85
16.604805946350098,0.7,7.66,-5.71,9.57
16.613703966140747,-0.83,8.79,-5.24,10.26
16.624080896377563,-2.85,10.06,-4.56,11.4
16.634160041809082,-5.19,11.48,-3.54,13.08
16.64483094215393,-8.2,13.3,-2.89,15.88
16.654726028442383,-12.23,14.86,-3.24,19.51
16.66435194015503,-16.7,15.01,-3.95,22.79
16.687412977218628,-20.27,13.47,-3.67,24.61
16.68831205368042,-22.61,10.59,-3.77,25.25
16.69458293914795,-24.31,6.69,-3.28,25.42
16.704197883605957,-25.58,1.98,-1.88,25.72
16.714550018310547,-27.42,-3.89,1.78,27.75
16.724373817443848,-29.11,-6.84,4.43,30.22
16.73450994491577,-29.82,-3.34,0.0,30.0
16.74520778656006,-29.47,1.33,-2.27,29.58
16.755045890808105,-24.09,3.59,6.08,25.1
16.764771938323975,-8.67,3.57,20.74,22.76
16.788608074188232,13.07,10.48,-0.24,16.75
16.789500951766968,31.8,13.87,1.72,34.73
16.794904947280884,25.64,8.56,2.41,27.13
16.804106950759888,9.57,2.19,-20.01,22.28
16.81428098678589,-16.76,10.43,-13.53,23.93
16.824814796447754,-27.27,9.7,-0.41,28.94
16.835432052612305,-12.82,1.89,-1.86,13.09
16.84748387336731,-7.04,-0.95,6.09,9.35
16.854382038116455,-6.36,-3.86,6.01,9.56
16.8645920753479,-4.51,-5.82,-2.01,7.63
16.88841199874878,-4.1,-4.71,-4.06,7.44
16.88957977294922,-5.74,-2.72,1.3,6.48
16.8953537940979,-7.19,-1.63,4.14,8.45
16.90550708770752,-7.04,0.64,2.12,7.38
16.9149649143219,-2.11,4.24,-5.31,7.11
16.924928903579712,6.25,7.96,-12.08,15.75
16.935919761657715,10.43,7.36,-5.87,14.05
16.947109937667847,9.19,0.24,2.36,9.49
16.955041885375977,5.44,-8.83,4.39,11.26
16.965063095092773,0.35,-7.42,8.26,11.1
16.99171209335327,-3.58,-0.89,8.58,9.33
16.992933750152588,-5.43,-0.34,2.42,5.95
16.99641704559326,-3.43,0.93,-7.58,8.37
17.00468397140503,-0.57,3.97,-9.37,10.19
17.01478910446167,0.1,2.14,-3.16,3.81
17.025755882263184,-0.34,-2.64,2.76,3.83
17.035258769989014,0.41,-3.71,7.12,8.03
17.047653913497925,1.6,-0.85,4.11,4.49
17.054982900619507,2.5,1.71,-2.12,3.69
17.0652117729187,2.84,2.13,-3.51,4.99
17.09158492088318,1.65,0.47,-0.76,1.87
17.092785835266113,-0.15,-1.37,2.44,2.8
17.09578800201416,-1.11,-1.51,2.47,3.1
17.1059627532959,-1.03,-0.33,0.39,1.14
17.115485906600952,-0.55,0.53,-1.29,1.49
17.125672817230225,-0.04,0.69,-1.41,1.57
17.135560035705566,0.36,0.44,-0.33,0.65
17.146679878234863,0.66,0.02,0.93,1.14
17.155416011810303,0.94,-0.14,1.4,1.69
17.165424823760986,1.05,0.12,1.01,1.46
17.190127849578857,1.07,0.5,0.32,1.22
17.191123008728027,0.94,0.62,-0.06,1.12
17.19525384902954,0.65,0.51,-0.14,0.83
17.2062029838562,0.24,0.47,-0.07,0.53
17.21519708633423,-0.08,0.51,0.04,0.51
17.226276874542236,-0.03,0.66,0.06,0.66
17.235403060913086,0.35,0.85,0.12,0.92
17.24605393409729,0.8,1.11,0.39,1.42
17.25555181503296,1.14,0.8,0.62,1.52
17.26560688018799,1.45,0.4,1.13,1.88
17.289956092834473,1.6,0.64,1.44,2.24
17.290924072265625,1.53,1.29,0.91,2.19
17.295235872268677,1.45,1.93,0.08,2.41
17.30643892288208,1.34,2.44,-0.42,2.81
17.3154559135437,1.27,2.66,-1.02,3.11
17.326469898223877,1.3,2.82,-1.63,3.5
17.336145877838135,1.26,3.28,-1.99,4.03
17.345809936523438,1.31,4.01,-1.85,4.6
17.355814933776855,1.93,4.76,-1.0,5.23
17.365993976593018,3.07,5.21,0.12,6.04
17.39122200012207,4.21,5.42,1.17,6.96
17.39238405227661,5.05,6.55,0.55,8.28
17.395609855651855,5.07,8.96,-0.61,10.31
17.406789779663086,5.0,9.73,5.97,12.46
17.415711879730225,8.05,11.05,6.47,15.12
17.427238941192627,11.64,12.64,5.82,18.14
17.43638801574707,15.18,14.24,7.04,21.97
17.44619393348694,18.93,14.3,7.04,24.74
17.456230878829956,21.37,12.53,6.22,25.54
17.466394901275635,19.71,8.62,5.54,22.21
17.491829872131348,13.19,5.2,6.5,15.59
17.493000030517578,6.23,4.85,8.19,11.37
17.495905876159668,2.52,4.63,9.67,11.01
17.507125854492188,0.33,4.75,8.75,9.96
17.515957832336426,-3.55,6.38,4.69,8.67
17.526805877685547,-7.68,8.65,-0.01,11.56
17.53642702102661,-6.52,10.0,-3.33,12.39
17.5461208820343,0.78,7.57,2.03,7.87
17.556565761566162,8.24,2.92,-0.77,8.77
17.566608905792236,13.6,-2.03,-2.58,13.99
17.59110975265503,15.73,-4.85,-1.15,16.5
17.592301845550537,15.31,-5.18,1.04,16.19
17.596168041229248,14.47,-4.07,3.39,15.4
17.606380939483643,14.29,-3.69,4.54,15.44
17.61614990234375,15.22,-4.32,6.81,17.22
17.627171993255615,15.05,-5.45,5.09,16.79
17.636329889297485,13.77,-5.55,1.77,14.95
17.647012948989868,12.82,-5.0,-0.26,13.76
17.65690588951111,11.63,-4.44,-2.15,12.63
17.666640758514404,10.52,-3.7,-4.7,12.1
17.690985918045044,9.7,-2.44,-6.88,12.13
17.692041873931885,9.03,-0.86,-8.13,12.18
17.696319103240967,8.43,0.72,-8.5,11.99
17.706501007080078,7.76,1.73,-8.51,11.64
17.71650195121765,7.01,1.75,-8.56,11.2
17.726501941680908,6.32,1.14,-8.49,10.64
17.73741388320923,5.78,0.74,-8.3,10.14
17.746928930282593,5.32,1.05,-8.17,9.8
17.756571769714355,4.63,1.91,-8.19,9.6
17.76704978942871,3.54,2.96,-8.48,9.65
17.791555881500244,2.18,4.01,-8.61,9.74
17.792715072631836,0.78,4.99,-8.13,9.57
17.7966570854187,-0.34,5.78,-7.26,9.28
17.80675196647644,-1.06,6.28,-6.11,8.82
17.81677484512329,-1.68,6.71,-4.71,8.36
17.82746696472168,-2.36,7.86,-3.44,8.89
17.837142944335938,-3.1,10.61,-2.38,11.3
17.847074031829834,-4.29,14.79,-1.51,15.47
17.85731601715088,-6.67,17.92,-0.89,19.14
17.867296934127808,-10.11,18.56,0.04,21.13
17.890172958374023,-13.46,17.69,2.11,22.32
17.89110803604126,-16.05,14.8,4.17,22.22
17.897950887680054,-18.05,9.68,3.43,20.76
17.90703797340393,-21.34,4.09,-1.12,21.75
17.91707706451416,-26.62,-0.26,-5.53,27.18
17.9273738861084,-31.32,-2.62,-1.69,31.47
17.937593936920166,-33.26,-4.37,4.82,33.89
17.94742774963379,-29.69,-1.38,4.03,29.99
17.95736789703369,-24.06,1.16,0.75,24.09
17.967106819152832,-21.39,0.09,-2.36,21.51
17.993189811706543,-21.15,0.16,-1.4,21.19
17.9941987991333,-15.28,4.24,17.52,23.63
17.997920989990234,8.89,8.94,30.88,33.35
18.00785493850708,46.73,8.82,2.85,47.64
18.01740789413452,44.56,0.84,-2.49,44.63
18.027216911315918,16.2,-3.21,-14.57,22.02
18.037487030029297,-8.39,4.05,-8.07,12.32
18.048332929611206,-22.72,13.17,9.59,27.95
18.05813503265381,-22.66,6.23,11.13,26.0
18.06966495513916,-20.1,0.71,-1.38,20.15
18.091116905212402,-25.27,2.21,-5.81,26.02
18.092025756835938,-26.46,0.63,-2.34,26.57
18.09799289703369,-17.59,-3.54,-3.26,18.23
18.108579874038696,-1.37,-9.7,-0.24,9.79
18.117536067962646,8.68,-11.62,-2.85,14.78
18.1275577545166,18.35,-2.29,7.08,19.8
18.13766574859619,24.02,8.16,10.14,27.31
18.148398876190186,12.86,5.11,-3.49,14.27
18.15772581100464,4.49,-2.72,4.04,6.62
18.16994595527649,-1.67,-7.23,1.66,7.6
18.19210195541382,-9.06,-5.07,-0.39,10.38
18.19297695159912,-13.91,0.29,-0.76,13.93
18.197810888290405,-12.8,3.4,-2.59,13.49
18.20787000656128,-6.18,2.01,-4.0,7.63
18.218804836273193,0.8,-0.56,-3.1,3.25
18.22879195213318,5.76,-1.1,1.77,6.12
18.237849950790405,8.28,-0.4,5.9,10.17
18.248636960983276,6.45,0.41,0.9,6.52
18.258848905563354,3.22,1.22,-1.51,3.75
18.269933938980103,0.86,1.1,-0.47,1.47
18.292380809783936,-0.79,0.12,0.24,0.83
18.293245792388916,-2.04,-0.63,-0.09,2.13
18.29793691635132,-2.53,-0.52,-0.52,2.63
18.307969093322754,-2.71,0.15,-1.26,2.99
18.319308757781982,-2.3,0.69,-0.81,2.53
18.329104900360107,-0.53,0.23,0.38,0.69
18.339629888534546,1.36,-0.55,1.43,2.04
18.348633766174316,2.87,-1.02,2.09,3.69
18.358757972717285,2.56,-0.75,1.23,2.93
18.37053394317627,1.62,-0.21,1.1,1.96
18.39223003387451,1.0,-0.21,0.35,1.08
18.39321279525757,-0.11,-0.1,-0.36,0.38
18.39830207824707,-0.85,0.06,-0.7,1.1
18.409300804138184,-1.05,0.26,-1.17,1.59
18.41974687576294,-1.0,0.72,-1.38,1.85
18.428330898284912,-0.52,1.05,-1.15,1.64
18.4389009475708,0.05,1.04,-0.86,1.35
18.448444843292236,0.5,0.96,-0.67,1.27
18.45884394645691,0.8,0.99,-0.49,1.36
18.471632957458496,0.89,1.16,-0.71,1.62
18.492558002471924,0.9,1.48,-0.92,1.96
18.493435859680176,0.95,1.91,-1.09,2.39
18.498368978500366,1.09,2.26,-1.03,2.71
18.508548974990845,1.32,2.6,-0.96,3.06
18.520161867141724,1.56,3.01,-1.4,3.66
18.52850890159607,1.79,3.55,-1.39,4.21
18.538615942001343,2.09,4.12,-1.3,4.79
18.549467086791992,2.71,4.55,-0.5,5.31
18.559186935424805,3.61,5.06,0.82,6.26
18.572606086730957,4.68,5.95,2.16,7.87
18.593507766723633,5.94,7.34,2.81,9.85
18.59467387199402,7.43,9.82,1.02,12.35
18.598634958267212,9.19,13.46,1.87,16.4
18.609374046325684,11.65,16.65,3.04,20.54
18.62074899673462,15.05,17.78,0.95,23.31
18.629255771636963,19.07,16.96,-2.93,25.68
18.638818979263306,21.94,11.05,-9.27,26.25
18.649646759033203,19.38,2.35,6.58,20.6
18.659498929977417,6.22,-3.09,0.85,6.99
18.669347763061523,-2.65,-0.98,5.31,6.01
18.693346977233887,-3.08,1.43,12.08,12.54
18.69454598426819,0.97,2.17,11.28,11.52
18.69905710220337,4.21,2.06,2.59,5.35
18.71007490158081,4.48,3.71,0.13,5.81
18.719532012939453,3.55,7.03,2.66,8.31
18.729691982269287,3.02,7.94,6.0,10.4
18.739593982696533,4.02,4.48,5.35,8.05
18.74944305419922,6.42,-0.38,5.84,8.68
18.759591102600098,9.4,-4.52,3.74,11.08
18.76980209350586,11.95,-7.87,1.7,14.4
18.79394292831421,12.53,-9.0,1.73,15.52
18.795058965682983,11.35,-6.99,3.97,13.9
18.799429893493652,9.83,-4.03,6.92,12.67
18.81033706665039,9.15,-1.28,9.67,13.37
18.819926977157593,9.03,-0.15,10.43,13.79
18.829668045043945,9.37,-0.97,10.32,13.97
18.84000301361084,9.66,-2.54,8.95,13.41
18.849318027496338,9.16,-2.98,7.21,12.03
18.859864950180054,7.99,-1.64,6.49,10.42
18.869791984558105,6.2,0.77,7.86,10.04
18.893635749816895,4.03,2.63,9.87,10.98
18.89481496810913,1.9,3.33,10.94,11.59
18.899424076080322,0.38,2.84,11.74,12.08
18.9094979763031,-0.31,2.29,12.92,13.12
18.9195339679718,-0.25,2.33,14.07,14.26
18.929585933685303,0.14,2.84,14.78,15.05
18.939531803131104,0.31,3.5,14.51,14.92
18.950564861297607,0.09,4.22,13.32,13.97
18.960131883621216,-0.56,5.04,12.33,13.33
18.969961881637573,-1.71,5.73,11.79,13.21
18.995537757873535,-3.29,6.4,10.75,12.93
18.996699810028076,-4.59,6.5,11.58,14.05
18.999759912490845,-4.8,5.55,13.6,15.45
19.00972080230713,-3.91,3.8,13.97,14.99
19.021410942077637,-2.3,2.4,13.65,14.04
19.029746055603027,-0.54,2.47,12.99,13.23
19.039734840393066,0.67,3.92,12.12,12.75
19.05156898498535,0.96,5.97,10.49,12.1
19.06029510498047,0.1,7.87,8.86,11.85
19.070287942886353,-1.84,9.22,7.9,12.28
19.087560892105103,-4.51,9.88,8.19,13.6
19.09584903717041,-7.36,10.03,8.79,15.23
19.09994387626648,-9.69,9.42,5.31,14.51
19.110074043273926,-11.54,7.51,3.07,14.1
19.11999487876892,-14.67,5.46,8.0,17.57
19.1301748752594,-17.78,3.11,9.79,20.53
19.140002965927124,-20.45,1.5,6.45,21.49
19.15063190460205,-23.37,2.01,4.36,23.85
19.160061836242676,-25.82,2.67,3.22,26.15
19.170920848846436,-26.18,0.38,0.92,26.19
19.18718695640564,-24.96,-2.57,-0.53,25.09
19.195101976394653,-22.53,-2.53,-1.99,22.75
19.200061798095703,-20.62,-0.55,-0.95,20.64
19.210236072540283,-17.5,2.29,-2.85,17.87
19.220768928527832,-10.63,3.72,-0.57,11.27
19.230470895767212,-0.1,4.09,-0.7,4.15
19.241739749908447,12.96,9.02,2.11,15.93
19.250979900360107,13.12,24.52,14.15,31.2
19.26093292236328,-4.93,30.48,-4.21,31.16
19.27076292037964,-9.19,3.22,1.43,9.84
19.29549789428711,-10.18,-23.18,6.13,26.04
19.296733856201172,-6.83,-18.71,3.76,20.26
19.30051898956299,2.26,0.91,10.19,10.47
19.310425758361816,0.73,7.06,4.3,8.29
19.321229934692383,-0.88,2.41,-1.17,2.81
19.330944061279297,0.05,-2.02,1.52,2.52
19.341019868850708,0.24,-2.69,2.36,3.58
19.35097885131836,-0.83,-0.56,-2.06,2.29
19.36120891571045,-3.3,1.13,-3.9,5.23
19.371070861816406,-4.08,2.53,-3.35,5.85
19.396979808807373,-2.06,2.13,-0.97,3.11
19.398169994354248,0.42,0.14,0.1,0.45
19.4007887840271,1.11,-0.37,-1.59,1.97
19.410637855529785,0.25,1.11,-2.87,3.08
19.42075777053833,-0.8,1.93,-2.67,3.39
19.43078374862671,-1.0,0.86,-2.59,2.9
19.440841913223267,-0.85,-0.24,-1.9,2.09
19.451871871948242,-1.17,0.2,-1.15,1.65
19.46138906478882,-0.79,0.93,-1.14,1.66
19.471336841583252,-0.06,0.73,-1.38,1.56
19.488306045532227,0.22,0.34,-0.94,1.02
19.49612808227539,0.2,0.28,-0.17,0.38
19.50101900100708,0.27,0.2,0.29,0.44
19.511010885238647,0.38,0.04,0.81,0.89
19.52152395248413,0.44,-0.14,1.31,1.38
19.532076835632324,0.48,-0.61,1.19,1.42
19.540987968444824,0.21,-1.1,0.88,1.42
19.551962852478027,-0.21,-1.12,1.73,2.07
19.561683893203735,0.12,-0.79,2.43,2.55
19.57143497467041,0.76,-0.59,2.56,2.73
19.589722871780396,0.98,-0.66,3.11,3.32
19.598219871520996,0.91,-0.99,3.38,3.63
19.601295948028564,0.77,-1.11,3.01,3.29
19.611243963241577,0.68,-1.02,1.85,2.21
19.6213960647583,-0.05,-1.22,0.8,1.45
19.631425857543945,-0.48,-0.98,-0.02,1.09
19.643664836883545,-0.69,0.08,-0.95,1.17
19.65177893638611,-0.99,0.7,-1.85,2.21
19.661834955215454,-1.07,0.86,-1.99,2.41
19.671600818634033,-0.7,1.03,-1.97,2.33
19.69012188911438,-0.11,1.34,-1.7,2.16
19.698424816131592,0.21,1.38,-1.2,1.84
19.701565980911255,0.57,0.96,-0.62,1.27
19.71150779724121,0.61,0.75,-0.37,1.03
19.72160291671753,0.22,0.84,-0.43,0.96
19.73155975341797,-0.01,0.61,-0.37,0.71
19.744102001190186,0.03,0.11,-0.46,0.47
19.75214385986328,0.2,-0.11,-0.39,0.45
19.762122869491577,0.14,0.32,-0.5,0.6
19.77224087715149,-0.22,0.0,-0.13,0.25
19.790812969207764,-0.21,-0.86,-0.02,0.88
19.799638748168945,-0.3,-0.82,-0.2,0.89
19.801743984222412,-0.69,-0.47,0.13,0.84
19.81180477142334,-0.78,-0.52,0.75,1.2
19.82280206680298,-0.49,-0.47,1.29,1.45
19.83287787437439,-0.18,-0.23,1.61,1.63
19.84406280517578,0.03,-0.02,1.79,1.79
19.852302074432373,0.28,0.39,1.64,1.7
19.862421989440918,0.66,0.86,1.9,2.18
19.87217688560486,1.07,1.2,1.7,2.33
19.890067100524902,1.19,1.92,1.4,2.65
19.898571968078613,1.18,2.75,1.38,3.29
19.902060985565186,1.72,3.36,1.04,3.91
19.912095069885254,2.34,4.14,1.38,4.95
19.921995878219604,3.15,5.02,1.95,6.23
19.932162761688232,4.24,5.71,2.3,7.47
19.94330883026123,4.24,5.05,4.79,8.15
19.952117919921875,3.36,3.78,8.59,9.96
19.962719917297363,1.57,3.34,10.25,10.89
19.972177982330322,2.55,2.81,9.46,10.19
19.989861011505127,2.52,3.72,8.69,9.78
19.998995780944824,-1.28,4.01,9.63,10.5
20.002592086791992,-8.97,5.39,9.03,13.82
20.01231288909912,-21.51,8.73,5.15,23.77
20.02277898788452,-31.5,8.39,2.63,32.7
20.032824993133545,-24.68,5.53,6.91,26.21
20.043920040130615,-6.01,3.36,8.07,10.6
20.054286003112793,0.55,3.81,5.18,6.45
20.063042879104614,4.14,5.07,2.05,6.85
20.07316493988037,9.19,4.97,-3.94,11.16
20.089882850646973,14.23,6.48,-5.68,16.63
20.09928607940674,17.35,8.35,-1.96,19.35
20.10283088684082,17.96,8.29,2.39,19.92
20.112555027008057,17.12,5.63,3.55,18.36
20.123563766479492,15.85,1.97,3.58,16.36
20.13364601135254,14.47,-0.55,4.18,15.07
20.146255016326904,13.06,-1.78,5.05,14.11
20.15305185317993,11.76,-2.34,5.22,13.07
20.163209915161133,10.7,-2.56,4.74,11.97
20.172831058502197,9.68,-2.64,4.25,10.89
20.19182777404785,8.74,-2.74,3.4,9.77
20.20077395439148,8.02,-2.75,1.44,8.59
20.202892780303955,7.41,-2.17,-0.46,7.73
20.21286106109619,6.99,-0.92,-1.37,7.18
20.223392963409424,6.57,0.38,-1.76,6.81
20.233486890792847,6.07,0.56,-1.3,6.23
20.243035793304443,5.8,-0.27,-0.77,5.85
20.253413915634155,5.75,-0.99,-1.12,5.94
20.26379108428955,5.95,-1.21,-1.1,6.17
20.273252964019775,6.38,-0.88,-1.13,6.53
20.301657915115356,6.79,-0.24,-1.38,6.93
20.302895069122314,6.88,0.31,-1.71,7.09
20.30504608154297,6.54,0.78,-2.14,6.92
20.313368797302246,5.91,1.25,-2.41,6.5
20.323169946670532,5.07,1.66,-2.71,5.98
20.33306884765625,4.09,2.03,-3.23,5.59
20.346020936965942,3.02,2.59,-3.63,5.38
20.35330104827881,2.03,3.44,-3.81,5.52
20.363626956939697,1.21,4.46,-4.0,6.11
20.37368106842041,0.64,5.25,-3.83,6.53
20.39084482192993,0.39,5.71,-3.39,6.65
20.39317297935486,0.21,6.12,-2.74,6.7
20.403285026550293,-0.29,6.74,-1.8,6.98
20.413346767425537,-1.29,7.7,-0.77,7.84
20.424138069152832,-2.8,9.17,0.4,9.59
20.43385887145996,-4.76,10.85,1.08,11.89
20.443710803985596,-6.93,12.04,1.04,13.93
20.453685760498047,-9.11,12.15,0.34,15.18
20.46392297744751,-11.32,11.22,-0.39,15.94
20.473703861236572,-13.41,9.53,-0.94,16.47
20.491317749023438,-15.34,7.44,-1.34,17.1
20.493298053741455,-17.33,4.93,-1.88,18.11
20.50408697128296,-19.56,1.76,-1.24,19.67
20.513540983200073,-22.28,-1.75,1.79,22.42
20.523611068725586,-25.3,-3.51,4.25,25.89
20.534494876861572,-25.73,-1.82,3.78,26.06
20.544193983078003,-24.04,-0.12,0.84,24.05
20.5538649559021,-22.54,-0.01,-1.83,22.61
20.564384937286377,-21.13,0.51,-1.39,21.18
20.573680877685547,-18.6,0.89,5.67,19.46
20.5900239944458,-7.73,4.02,14.14,16.6
20.593633890151978,3.41,11.12,3.38,12.11
20.60369300842285,10.59,10.49,3.17,15.23
20.614999771118164,10.92,9.88,-11.1,18.44
20.62384605407715,4.05,8.2,-25.75,27.32
20.633813858032227,-5.07,6.59,6.07,10.29
20.64466381072998,-9.2,4.09,6.11,11.77
20.654140949249268,-9.32,-2.05,0.45,9.55
20.664501905441284,-9.53,-6.82,1.24,11.78
20.674108028411865,-11.16,-5.89,3.31,13.04
20.69149875640869,-11.46,-0.76,2.46,11.74
20.693835973739624,-9.43,1.82,1.47,9.71
20.704288959503174,-6.31,0.72,0.36,6.36
20.713932991027832,-2.88,-0.99,-2.08,3.68
20.724042892456055,1.36,0.22,-7.78,7.9
20.734117031097412,5.18,5.45,-8.46,11.31
20.745110988616943,6.64,6.83,-2.37,9.81
20.754275798797607,5.13,0.91,2.03,5.59
20.76460886001587,2.16,-6.33,3.68,7.63
20.77438187599182,-0.1,-4.43,5.88,7.36
20.792315006256104,-1.45,-0.3,6.37,6.53
20.794164896011353,-1.87,-0.92,1.43,2.52
20.80447483062744,-1.0,-0.14,-4.16,4.28
20.814433097839355,-0.55,1.83,-4.15,4.56
20.824909925460815,-1.07,0.69,-1.08,1.66
20.83430790901184,-1.6,-1.57,1.61,2.75
20.844253063201904,-1.17,-1.62,2.92,3.53
20.855031967163086,0.11,-0.38,2.18,2.21
20.864655017852783,1.53,0.45,0.05,1.59
20.87434482574463,2.32,0.83,-1.32,2.79
20.89213800430298,2.15,0.62,-0.77,2.36
20.894383907318115,1.2,-0.32,0.65,1.4
20.905168056488037,-0.01,-1.17,1.8,2.14
20.914433002471924,-0.74,-1.39,2.12,2.64
20.92476797103882,-0.69,-1.03,1.41,1.87
20.934557914733887,-0.12,-0.3,0.25,0.4
20.945510864257812,0.44,0.62,-0.31,0.82
20.954487800598145,0.76,0.96,-0.32,1.26
20.965063095092773,0.92,0.49,-0.45,1.13
20.975327968597412,0.83,0.31,-0.13,0.89
20.992767810821533,0.55,0.44,0.41,0.81
20.994558811187744,0.51,0.25,0.49,0.75
21.00485587120056,0.72,0.22,0.58,0.95
21.014677047729492,0.92,0.32,0.67,1.18
21.025644779205322,0.92,0.39,0.46,1.1
21.035374879837036,0.69,0.59,0.19,0.92
21.045244932174683,0.33,0.84,-0.06,0.9
21.05517888069153,0.07,0.97,-0.39,1.04
21.06573987007141,0.03,1.25,-0.5,1.34
21.075457096099854,0.14,2.06,-0.01,2.06
21.09292697906494,0.56,1.96,0.54,2.1
21.094960927963257,0.99,0.53,-1.16,1.61
21.105764865875244,0.79,1.99,-0.43,2.18
21.114916801452637,0.81,2.45,-0.83,2.71
21.1251540184021,1.0,2.55,-1.86,3.31
21.135072946548462,0.87,3.06,-1.58,3.55
21.145047903060913,0.99,3.47,0.11,3.61
21.155824899673462,2.16,4.04,1.67,4.87
21.167386054992676,3.74,4.64,2.36,6.4
21.1753408908844,4.86,5.27,2.53,7.6
21.193068027496338,5.43,6.21,1.99,8.48
21.19507598876953,5.47,7.98,0.39,9.68
21.205342769622803,5.31,9.56,2.03,11.12
21.21520185470581,6.75,11.11,3.42,13.44
21.22575807571411,9.15,12.11,2.18,15.33
21.23576593399048,11.35,12.87,2.88,17.39
21.245707988739014,14.14,14.07,3.88,20.32
21.25584888458252,17.71,14.58,3.01,23.13
21.267991065979004,20.33,13.36,2.08,24.41
21.275325775146484,19.23,10.64,2.53,22.12
21.291621923446655,14.34,7.04,6.06,17.08
21.295351028442383,9.21,3.83,9.85,14.01
21.30564594268799,5.34,2.03,9.85,11.38
21.316598892211914,2.94,1.98,10.3,10.89
21.32605504989624,0.88,4.26,6.93,8.18
21.335943937301636,-2.59,8.83,-1.34,9.29
21.347380876541138,-5.95,11.68,-1.66,13.21
21.356008052825928,-5.25,10.67,4.8,12.82
21.368731021881104,-1.04,6.74,4.44,8.13
21.37595796585083,3.85,1.98,2.57,5.03
21.393033981323242,10.12,-4.04,-0.03,10.89
21.395732879638672,15.44,-8.91,-1.05,17.85
21.40639090538025,17.21,-9.75,-0.47,19.78
21.41710090637207,15.65,-7.24,0.67,17.25
21.426899909973145,13.37,-4.13,2.9,14.29
21.435760974884033,12.1,-2.09,4.74,13.16
21.44579792022705,11.67,-1.66,4.99,12.8
21.45779275894165,11.82,-2.87,4.05,12.81
21.46869397163391,11.99,-4.46,2.41,13.01
21.4759259223938,11.67,-5.07,1.08,12.76
21.493587970733643,10.64,-4.66,0.36,11.62
21.49586296081543,9.06,-3.84,0.02,9.84
21.506701946258545,7.39,-2.98,-0.54,7.98
21.51754379272461,6.11,-2.01,-1.49,6.6
21.52613878250122,5.12,-0.64,-3.26,6.1
21.535911083221436,4.24,0.92,-5.17,6.74
21.5467689037323,3.87,1.67,-3.56,5.51
21.55660891532898,4.0,1.49,-3.11,5.28
21.569479942321777,4.17,0.58,-3.52,5.48
21.576368808746338,3.98,0.4,-4.14,5.75
21.594329833984375,3.4,1.6,-5.02,6.27
21.596040964126587,2.48,3.36,-6.29,7.55
21.60634183883667,1.32,5.08,-7.85,9.44
21.618083000183105,-0.17,6.69,-8.37,10.71
21.627331972122192,-2.12,8.11,-7.24,11.07
21.636990070343018,-4.39,9.36,-5.62,11.76
21.646602869033813,-6.34,10.38,-4.65,13.02
21.656888961791992,-7.3,11.05,-3.6,13.72
21.66936492919922,-7.42,11.7,-1.72,13.96
21.676739931106567,-7.51,13.18,0.92,15.19
21.694416999816895,-8.19,15.27,3.76,17.73
21.696448802947998,-10.02,17.14,4.52,20.36
21.70723009109497,-13.09,17.34,3.67,22.03
21.718493938446045,-17.03,14.15,3.06,22.35
21.726547956466675,-23.64,8.01,1.96,25.03
21.737937927246094,-32.48,0.99,0.16,32.49
21.747036933898926,-40.67,-3.29,0.24,40.8
21.757187843322754,-40.89,-0.5,3.8,41.06
21.7686128616333,-35.14,1.64,3.0,35.3
21.77693796157837,-27.68,1.67,-1.5,27.77
21.793758869171143,-19.64,5.54,-3.0,20.62
21.79655694961548,-11.2,8.99,6.9,15.93
21.807400941848755,13.61,14.47,21.58,29.33
21.816725969314575,65.31,15.7,-5.0,67.35
21.827292919158936,57.17,-3.81,-10.58,58.26
21.836641788482666,4.48,-2.3,-4.41,6.69
21.847824096679688,-15.87,6.19,8.12,18.87
21.856709957122803,-24.47,9.15,7.57,27.19
21.867602825164795,-19.26,-3.92,0.42,19.65
21.87735605239868,-16.84,-6.48,2.03,18.15
21.894618034362793,-19.05,-1.34,4.23,19.55
21.896789073944092,-23.86,5.22,-3.7,24.7
21.907176971435547,-24.49,7.64,3.6,25.9
21.916874885559082,-15.51,0.59,2.37,15.7
21.927617073059082,-4.83,-9.32,0.92,10.53
21.936986923217773,6.0,-14.02,-7.48,16.98
21.94796085357666,16.14,-4.61,-9.58,19.32
21.957465887069702,20.8,11.72,8.54,25.35
21.967623949050903,17.27,10.81,10.23,22.79
21.977338790893555,9.6,-2.17,-2.64,10.19
21.995800018310547,1.55,-7.8,-3.29,8.6
21.998383045196533,-6.24,-5.6,-1.01,8.44
22.00749897956848,-12.72,-0.47,0.78,12.75
22.017240047454834,-15.29,1.98,0.13,15.41
22.027354955673218,-10.62,0.52,-1.23,10.7
22.037221908569336,-3.14,-1.68,-2.15,4.15
22.048256874084473,3.22,-1.27,-0.87,3.56
22.057775020599365,7.58,0.43,2.53,8.0
22.068070888519287,9.08,0.92,4.15,10.02
22.07758378982544,6.41,-0.12,0.99,6.48
22.096057891845703,2.52,-0.39,-0.2,2.55
22.09912395477295,-0.18,-0.4,0.32,0.54
22.107823848724365,-2.71,-0.95,0.28,2.88
22.117618083953857,-4.21,-0.87,0.13,4.3
22.128704071044922,-3.71,-0.2,0.31,3.72
22.13801908493042,-1.74,-0.08,0.08,1.74
22.14836883544922,0.37,-0.12,-0.05,0.39
22.15798807144165,2.08,0.17,0.31,2.1
22.167995929718018,2.97,0.29,0.56,3.03
22.177802085876465,2.71,0.35,0.16,2.73
22.195446014404297,1.22,0.36,-0.15,1.28
22.197592973709106,-0.41,0.2,0.12,0.47
22.209166049957275,-1.29,0.02,0.41,1.35
22.21760606765747,-1.14,0.03,0.29,1.17
22.228475093841553,-0.34,0.36,-0.07,0.5
22.23775577545166,0.32,0.69,-0.03,0.76
22.24868106842041,0.75,0.78,0.26,1.11
22.25826096534729,0.87,0.84,0.3,1.24
22.268048763275146,0.7,1.03,0.14,1.25
22.278080940246582,0.39,1.27,-0.11,1.33
22.29621982574463,0.29,1.83,-0.02,1.85
22.297818899154663,0.56,1.98,0.43,2.1
22.31041693687439,1.12,1.61,-0.42,2.0
22.317902088165283,1.46,1.87,-1.49,2.8
22.32913303375244,1.42,2.27,-2.11,3.4
22.338337898254395,1.44,2.52,-2.11,3.58
22.348427772521973,1.67,2.81,-1.67,3.67
22.35881495475769,1.94,3.34,-1.21,4.04
22.36861276626587,2.32,4.02,-0.57,4.67
22.378583908081055,2.99,4.89,0.33,5.74
22.397270917892456,3.87,5.83,1.24,7.1
22.399524927139282,5.01,6.73,1.97,8.61
22.410043954849243,6.4,7.6,1.96,10.12
22.41923189163208,7.61,8.7,0.2,11.56
22.428378105163574,8.1,10.56,-0.45,13.31
22.438663005828857,8.3,13.1,1.47,15.57
22.448644876480103,10.12,14.08,1.75,17.42
22.458786010742188,13.65,13.09,1.07,18.94
22.46875286102295,16.31,11.52,-1.57,20.02
22.478667974472046,14.46,9.29,5.22,17.96
22.49582576751709,6.56,8.29,6.91,12.62
22.498318910598755,-4.24,7.68,11.02,14.08
22.51061987876892,-2.64,7.3,13.27,15.37
22.518353939056396,7.61,6.1,13.55,16.69
22.529620885849,12.69,5.28,11.36,17.83
22.53845977783203,11.1,6.22,3.34,13.15
22.549431800842285,6.53,8.08,-1.14,10.45
22.55889892578125,3.26,7.28,3.79,8.83
22.56914496421814,4.77,3.83,4.98,7.88
22.578856945037842,7.97,0.5,5.22,9.54
22.59773588180542,10.82,-2.28,4.8,12.05
22.600038051605225,12.44,-4.16,4.7,13.93
22.611105918884277,12.52,-4.82,5.17,14.37
22.618608951568604,11.71,-4.3,6.45,14.04
22.629868030548096,10.67,-3.06,8.15,13.77
22.64083480834961,9.91,-2.08,9.68,14.0
22.649240016937256,9.24,-1.91,10.15,13.85
22.659327030181885,8.18,-2.35,9.79,12.97
22.66917395591736,6.41,-2.73,8.74,11.17
22.67908787727356,4.14,-2.45,7.32,8.75
22.697160959243774,1.65,-1.28,6.61,6.93
22.698863983154297,-0.64,0.16,7.3,7.32
22.71148681640625,-2.09,1.15,8.52,8.84
22.71943998336792,-2.37,1.07,9.77,10.11
22.72961187362671,-1.73,-0.22,10.21,10.35
22.738924980163574,-0.17,-1.9,11.29,11.45
22.749785900115967,1.76,-2.42,12.01,12.37
22.759403944015503,3.43,-1.85,11.88,12.5
22.769532918930054,4.79,-0.78,11.62,12.59
22.779409885406494,5.8,0.22,11.14,12.56
22.797217845916748,6.06,1.09,9.98,11.72
22.79905080795288,5.25,1.73,9.2,10.73
22.811995029449463,3.98,1.66,10.72,11.55
22.81910490989685,3.14,0.97,11.93,12.37
22.82942485809326,2.87,0.08,12.16,12.49
22.842060089111328,3.02,-0.37,11.9,12.28
22.849533081054688,3.22,0.03,11.15,11.6
22.85968589782715,3.05,1.25,9.97,10.5
22.8699209690094,2.55,3.04,8.34,9.23
22.87964391708374,1.89,5.09,6.47,8.44
22.898886919021606,0.93,7.14,5.45,9.03
22.901099920272827,-0.59,9.18,4.62,10.29
22.912425994873047,-2.48,11.14,1.75,11.54
22.919861793518066,-4.23,12.23,-1.52,13.02
22.930048942565918,-6.64,12.74,0.7,14.38
22.94078493118286,-9.63,13.7,3.85,17.18
22.950000762939453,-12.79,14.76,4.91,20.13
22.96002197265625,-15.9,14.89,6.28,22.67
22.969953060150146,-19.14,12.7,6.22,23.79
22.979537963867188,-23.76,8.35,2.13,25.27
22.99662685394287,-31.45,2.66,-3.08,31.71
23.000065803527832,-41.15,-2.46,-3.74,41.39
23.01208996772766,-45.06,-4.53,-0.99,45.29
23.01987886428833,-36.69,-1.0,-0.88,36.71
23.030323028564453,-27.6,2.96,-3.24,27.94
23.041258811950684,-21.2,4.04,-5.01,22.15
23.049770832061768,-9.8,8.06,-8.87,15.48
23.05977487564087,18.63,16.8,-11.66,27.66
23.07067108154297,39.51,14.45,2.14,42.12
23.080137968063354,26.47,8.0,-7.83,28.73
23.096774101257324,2.83,6.55,3.19,7.81
23.099812030792236,-6.8,7.21,2.93,10.33
23.112891912460327,-11.86,5.66,10.85,17.04
23.119709968566895,-17.98,2.08,4.86,18.74
23.130603790283203,-23.01,-5.62,5.66,24.35
23.14165997505188,-15.97,-10.1,3.88,19.29
23.15009593963623,-6.59,-5.72,1.11,8.79
23.160054922103882,-0.75,-1.94,1.39,2.5
23.171042919158936,3.1,-0.82,1.08,3.38
23.180581092834473,4.92,-0.04,-3.04,5.78
23.199230909347534,6.17,4.0,-6.42,9.76
23.201467037200928,5.3,7.81,-3.53,10.07
23.213884830474854,2.93,3.87,1.28,5.01
23.22016191482544,0.29,-3.53,1.66,3.91
23.230231761932373,-1.83,-5.81,0.75,6.13
23.240113973617554,-3.57,-2.25,0.24,4.22
23.250292778015137,-3.96,1.6,0.37,4.28
23.261143922805786,-2.61,2.42,-1.05,3.71
23.270479917526245,0.11,0.65,-1.17,1.34
23.280773878097534,2.59,-0.96,1.55,3.16
23.299004077911377,3.48,-1.53,3.56,5.2
23.30123496055603,2.26,-0.67,0.74,2.47
23.314074993133545,0.55,0.97,-1.93,2.22
23.320379972457886,-0.63,1.54,-2.01,2.6
23.331582069396973,-1.38,0.91,-1.07,1.96
23.340462923049927,-1.35,-0.27,-0.15,1.38
23.351382970809937,-0.58,-0.7,0.74,1.17
23.3609619140625,0.16,-0.25,0.8,0.85
23.371286869049072,0.75,0.19,0.3,0.82
23.380910873413086,1.2,0.29,0.05,1.23
23.399786949157715,1.12,0.21,0.62,1.29
23.401933908462524,0.69,0.16,0.89,1.13
23.41472101211548,0.45,0.35,0.2,0.6
23.42077875137329,0.21,0.75,-0.45,0.89
23.43078589439392,-0.07,0.94,-0.46,1.04
23.44122290611267,0.02,0.79,-0.23,0.82
23.451266765594482,0.16,0.69,0.0,0.7
23.4612717628479,0.57,0.72,0.28,0.96
23.471356868743896,0.92,0.88,0.26,1.29
23.48138189315796,0.92,1.21,0.44,1.58
23.49835777282715,0.75,1.34,0.59,1.64
23.500398874282837,0.78,1.26,0.86,1.71
23.511668920516968,1.02,1.26,1.03,1.92
23.520448923110962,1.42,1.47,1.0,2.27
23.53062391281128,1.86,1.92,0.64,2.74
23.54134488105774,2.0,2.13,-0.27,2.93
23.551666975021362,1.79,2.05,-1.71,3.21
23.56141495704651,1.3,2.33,-2.84,3.89
23.57139301300049,0.99,3.06,-2.84,4.29
23.581432819366455,1.43,3.83,-1.82,4.47
23.60047197341919,2.45,4.47,-0.45,5.11
23.603321075439453,3.65,4.95,0.66,6.18
23.615741968154907,4.72,5.47,1.32,7.34
23.621004104614258,5.4,6.5,0.45,8.46
23.631271839141846,5.54,8.15,0.69,9.87
23.64188575744629,6.04,9.78,3.09,11.9
23.65195894241333,8.14,11.21,2.52,14.08
23.661652088165283,10.88,11.39,4.3,16.32
23.672226905822754,13.92,11.08,5.31,18.56
23.682047843933105,17.32,9.63,5.4,20.53
23.699466943740845,19.33,7.79,5.28,21.49
23.70139980316162,18.28,6.34,3.04,19.58
23.717276096343994,10.72,8.11,0.94,13.47
23.72132897377014,0.99,8.83,8.53,12.31
23.732254028320312,-0.16,6.85,8.91,11.23
23.74166488647461,2.14,4.19,8.87,10.04
23.751823902130127,2.83,2.76,9.0,9.82
23.761700868606567,3.39,3.28,5.77,7.45
23.771854877471924,3.12,5.66,1.7,6.68
23.78231906890869,1.54,8.47,1.81,8.79
23.80592679977417,0.99,8.88,3.74,9.68
23.807106018066406,2.06,5.99,3.97,7.47
23.811654090881348,3.42,2.32,3.45,5.38
23.821537017822266,5.2,-0.36,2.64,5.84
23.831727027893066,7.93,-2.68,2.56,8.75
23.842173099517822,11.72,-5.09,2.0,12.93
23.852306842803955,14.99,-6.6,1.79,16.47
23.86207389831543,16.25,-6.49,2.3,17.64
23.872305870056152,15.13,-5.39,3.3,16.39
23.882259845733643,13.19,-4.1,4.96,14.67
23.90119504928589,11.61,-3.06,6.35,13.58
23.903320789337158,10.64,-2.47,7.16,13.06
23.916758060455322,9.84,-2.64,7.29,12.52
23.922269821166992,9.0,-3.27,6.73,11.7
23.932005882263184,8.08,-3.72,5.91,10.67
23.941962957382202,7.1,-3.5,4.69,9.2
23.95210599899292,5.88,-1.96,2.47,6.67
23.962753772735596,4.04,0.45,-1.44,4.31
23.97239398956299,2.4,1.99,2.96,4.29
23.98236393928528,1.49,3.13,3.83,5.16
24.001550912857056,1.08,3.07,4.84,5.83
24.003710985183716,0.87,2.55,5.01,5.68
24.01763391494751,0.54,2.8,4.58,5.39
24.022069931030273,-0.09,3.84,4.41,5.84
24.03222393989563,-0.91,5.17,3.38,6.24
24.04282283782959,-1.74,6.47,2.44,7.13
24.05269193649292,-2.4,7.7,2.61,8.47
24.06258797645569,-2.97,8.81,3.61,9.97
24.072795867919922,-3.42,9.71,5.32,11.58
24.0830078125,-3.86,10.52,7.21,13.32
24.10851287841797,-4.29,11.22,9.6,15.37
24.109724044799805,-4.61,11.68,11.29,16.88
24.11236000061035,-5.03,11.98,12.61,18.1
24.122838973999023,-5.7,12.06,10.42,16.92
24.13286781311035,-6.47,11.12,-0.8,12.89
24.142401933670044,-9.5,8.96,0.35,13.06
24.152641773223877,-16.59,4.88,11.06,20.52
24.162435054779053,-25.98,2.24,6.31,26.82
24.172618865966797,-32.28,2.28,5.18,32.77
24.183085918426514,-31.19,3.62,4.65,31.74
24.205208778381348,-29.93,1.67,-0.43,29.97
24.2060809135437,-28.85,0.07,-1.4,28.88
24.212564945220947,-27.46,0.85,-1.39,27.5
24.222615957260132,-22.72,2.83,-2.05,22.98
24.232671976089478,-14.33,4.51,-1.85,15.13
24.243592977523804,-2.18,9.14,-7.66,12.12
24.254072904586792,13.71,13.52,-9.44,21.44
24.265111923217773,18.78,15.02,-2.89,24.22
24.27304196357727,9.39,10.18,1.8,13.96
24.283260822296143,-5.79,5.87,7.04,10.84
24.30722689628601,-19.06,6.98,11.89,23.52
24.308430910110474,-23.05,6.51,-2.54,24.08
24.31335186958313,-18.62,-3.91,1.93,19.12
24.323867797851562,-2.49,-8.41,-1.46,8.89
24.333303928375244,7.74,-6.48,2.64,10.43
24.342814922332764,7.7,-1.42,2.01,8.08
24.35491394996643,1.36,3.6,1.32,4.06
24.365102767944336,-2.19,2.97,-0.61,3.74
24.37344193458557,-2.51,-0.58,-0.07,2.57
24.38354778289795,-1.46,-1.54,-0.11,2.12
24.408949851989746,-0.4,-0.07,-0.25,0.47
24.409867763519287,0.31,1.0,-0.21,1.06
24.41369390487671,0.49,0.51,-0.71,1.0
24.42416286468506,0.02,-0.07,-1.33,1.33
24.43419075012207,0.01,-0.29,0.09,0.3
24.443172931671143,0.48,0.36,1.0,1.16
24.45392608642578,0.62,-0.06,0.54,0.82
24.465922832489014,0.26,-0.66,0.77,1.04
24.473273754119873,0.16,-0.27,1.31,1.34
24.483820915222168,0.06,-0.11,0.78,0.79
24.50760293006897,-0.06,-0.21,0.72,0.75
24.508474826812744,0.05,-0.33,0.74,0.81
24.51422691345215,0.19,-0.44,0.75,0.89
24.52456498146057,0.29,-0.68,0.46,0.87
24.533432960510254,0.92,-0.45,1.36,1.7
24.54345989227295,1.12,-0.2,1.73,2.07
24.55423879623413,1.84,-1.14,1.45,2.6
24.56601595878601,1.92,-1.4,0.53,2.43
24.574164867401123,0.59,-0.58,1.86,2.03
24.584033012390137,-0.44,-0.35,1.93,2.01
24.608076095581055,0.31,-0.03,0.5,0.58
24.609070777893066,0.88,0.36,-1.43,1.71
24.615248918533325,0.42,1.05,-2.51,2.75
24.623547077178955,0.21,1.89,-2.24,2.93
24.633575916290283,0.44,1.57,-1.14,1.98
24.643478870391846,0.68,0.3,-0.06,0.74
24.654200077056885,0.79,-0.19,0.61,1.01
24.666706085205078,0.58,0.25,0.59,0.86
24.673983097076416,0.41,0.62,0.22,0.77
24.684013843536377,0.37,0.69,0.03,0.78
24.709848880767822,0.31,0.71,-0.02,0.77
24.711068868637085,0.2,0.98,-0.58,1.15
24.714559078216553,0.04,1.48,-1.25,1.93
24.72369694709778,0.04,2.07,-1.19,2.38
24.734471797943115,0.19,1.45,-1.25,1.92
24.744210958480835,0.38,1.01,-0.92,1.41
24.754345893859863,0.41,1.36,-1.08,1.78
24.764993906021118,0.39,1.52,-2.53,2.97
24.774914979934692,0.19,1.8,-2.94,3.45
24.78422784805298,0.02,2.27,-1.96,2.99
24.81066083908081,0.53,2.7,-0.89,2.89
24.811858892440796,1.58,3.22,0.04,3.58
24.81402587890625,2.58,3.79,0.75,4.64
24.824699878692627,3.34,4.11,1.65,5.54
24.834573984146118,3.79,4.18,2.67,6.24
24.844456911087036,4.24,4.33,2.76,6.65
24.854498863220215,4.8,5.25,1.7,7.31
24.86445903778076,5.18,6.81,1.75,8.73
24.87463903427124,5.95,7.83,2.22,10.08
24.884532928466797,7.14,7.8,0.75,10.6
24.910994052886963,7.96,7.4,1.19,10.93
24.912194967269897,9.4,8.13,2.8,12.73
24.914251804351807,11.86,9.46,6.35,16.44
24.926291942596436,15.17,9.79,8.15,19.8
24.934902906417847,17.62,7.63,6.61,20.3
24.944663047790527,15.41,5.19,4.16,16.78
24.95535898208618,4.33,8.21,8.17,12.36
24.964760780334473,-2.69,10.17,13.15,16.84
24.97495198249817,-0.28,8.25,11.92,14.49
24.985486030578613,1.11,6.97,11.41,13.41
25.011054039001465,-0.88,6.78,10.45,12.48
25.01225996017456,-1.65,5.81,6.28,8.71
25.014628887176514,-2.45,6.26,2.28,7.09
25.025043964385986,-3.78,8.05,3.39,9.51
25.034553050994873,-1.34,7.86,3.37,8.65
25.04497003555298,3.87,6.13,3.13,7.89
25.0553240776062,9.57,3.86,2.72,10.67
25.06513500213623,15.35,0.8,0.67,15.38
25.075979948043823,19.36,-1.1,-0.51,19.39
25.08545207977295,20.41,-1.33,-0.04,20.45
25.108507871627808,18.61,-0.93,1.79,18.71
25.109376907348633,15.72,-0.65,4.11,16.26
25.11474609375,13.38,-1.39,5.33,14.46
25.12490701675415,11.74,-2.93,5.27,13.19
25.13594388961792,10.6,-4.39,4.73,12.4
25.145822048187256,9.51,-5.14,4.44,11.68
25.1549289226532,8.26,-5.01,4.42,10.62
25.165759086608887,6.83,-4.28,4.59,9.27
25.17633891105652,5.25,-3.46,4.44,7.69
25.18552875518799,3.78,-2.58,3.27,5.62
25.209299087524414,2.9,-1.58,1.37,3.57
25.21015977859497,2.89,-0.08,0.05,2.89
25.2149920463562,3.52,1.46,-0.2,3.81
25.22573184967041,4.24,2.01,1.17,4.83
25.23507595062256,4.75,1.61,3.04,5.86
25.245630979537964,4.66,1.08,4.31,6.43
25.25512981414795,3.98,1.31,4.85,6.4
25.26599097251892,3.06,2.7,4.39,5.99
25.27551794052124,2.12,4.62,3.27,6.04
25.285686016082764,1.16,6.28,1.71,6.61
25.310309886932373,0.12,7.37,0.74,7.4
25.311466932296753,-1.1,8.33,0.31,8.4
25.315303802490234,-2.47,9.65,0.33,9.96
25.325356006622314,-3.87,11.39,0.47,12.03
25.33531093597412,-5.35,13.24,0.33,14.28
25.34579086303711,-6.9,14.93,-1.91,16.55
25.35590887069702,-8.24,15.65,-4.02,18.13
25.366050958633423,-10.4,15.26,-7.37,19.88
25.37600088119507,-13.9,14.34,-10.7,22.65
25.38545799255371,-17.3,12.53,-12.83,24.91
25.410046100616455,-21.06,9.69,-11.67,25.95
25.410928964614868,-27.63,4.0,-7.05,28.79
25.415815830230713,-33.27,-1.13,-2.98,33.42
25.426214933395386,-32.08,1.5,-6.1,32.68
25.43555498123169,-31.1,3.05,-12.87,33.79
25.44577407836914,-32.72,1.17,-16.8,36.79
25.455687999725342,-33.87,0.56,-12.55,36.12
25.465682983398438,-30.1,1.25,-2.92,30.26
25.475668907165527,-13.5,5.85,27.46,31.15
25.485822916030884,22.05,16.14,-0.47,27.32
25.49969792366028,42.45,11.16,-8.04,44.62
25.505507946014404,36.38,1.78,-12.94,38.65
25.51530694961548,8.48,3.12,-14.65,17.21
25.525506019592285,-25.13,11.08,-0.69,27.47
25.535411834716797,-29.83,8.51,5.23,31.45
25.546517848968506,-14.95,1.28,2.0,15.13
25.55620002746582,-11.31,-1.68,5.15,12.54
25.566186904907227,-9.71,-3.89,1.88,10.62
25.576246976852417,-5.04,-5.93,-4.95,9.22
25.586248874664307,-4.99,-5.32,-3.3,8.0
25.61063575744629,-8.21,-1.26,3.54,9.02
25.611824989318848,-8.48,2.15,1.22,8.83
25.615941047668457,0.12,6.3,-11.36,12.99
25.626025915145874,13.03,9.46,-15.41,22.28
25.636058807373047,16.28,4.06,-0.84,16.79
25.64597487449646,10.69,-5.96,6.79,13.99
25.6566379070282,0.94,-5.72,9.28,10.94
25.667202949523926,-6.83,-1.61,8.34,10.89
25.676657915115356,-8.8,-1.28,1.92,9.09
25.68860387802124,-5.42,-0.3,-5.87,7.99
25.70944309234619,-1.43,0.7,-7.98,8.13
25.710328102111816,0.11,0.27,-3.76,3.77
25.716218948364258,-0.03,-0.72,1.94,2.06
25.72623300552368,0.66,-0.43,4.41,4.47
25.7363018989563,2.52,0.44,3.97,4.72
25.746968984603882,4.09,0.64,1.23,4.31
25.75671887397766,4.14,0.72,-1.2,4.37
25.766746044158936,2.41,0.54,-1.56,2.92
25.77689790725708,-0.14,-0.18,-0.44,0.49
25.787893772125244,-2.07,-0.92,0.68,2.36
25.8105309009552,-2.59,-0.98,0.87,2.9
25.811617851257324,-1.81,-0.52,0.52,1.95
25.81640386581421,-0.2,0.13,-0.17,0.29
25.82648801803589,1.36,0.5,-0.51,1.53
25.83691096305847,2.17,0.61,-0.25,2.26
25.846943855285645,1.84,0.57,0.54,2.0
25.856900930404663,1.1,1.14,2.16,2.67
25.867264986038208,1.37,0.58,3.14,3.47
25.87713384628296,1.97,-1.11,0.87,2.42
25.88778781890869,0.4,0.08,1.01,1.08
25.910741806030273,-0.52,1.1,0.75,1.42
25.911828994750977,-0.45,1.0,-0.35,1.15
25.916687965393066,-0.3,0.93,-1.13,1.49
25.926715850830078,-0.22,1.3,-1.38,1.9
25.937696933746338,0.06,1.72,-1.38,2.2
25.94680881500244,0.4,1.84,-1.59,2.46
25.95731496810913,0.66,1.71,-1.66,2.47
25.967221975326538,0.9,1.67,-1.54,2.44
25.977361917495728,1.02,1.76,-1.42,2.48
25.9881329536438,0.99,1.98,-1.09,2.46
26.010817050933838,0.97,2.38,-0.46,2.61
26.011682987213135,1.42,2.87,0.2,3.2
26.016969919204712,2.29,3.24,0.64,4.01
26.027514934539795,3.15,3.43,0.89,4.74
26.038235902786255,3.63,3.57,1.13,5.21
26.047043800354004,3.76,3.78,0.95,5.41
26.056959867477417,3.99,4.11,0.82,5.78
26.06696391105652,4.27,4.55,0.92,6.3
26.077046871185303,4.87,5.32,0.93,7.27
26.089673042297363,5.75,7.06,-0.83,9.14
26.103092908859253,6.36,9.65,0.13,11.55
26.110780954360962,7.64,12.09,4.03,14.85
26.117763996124268,10.94,13.28,3.18,17.49
26.12740993499756,14.84,13.21,2.14,19.98
26.138706922531128,18.98,13.5,1.35,23.33
26.14714789390564,21.45,11.99,-0.16,24.57
26.157274961471558,19.17,7.8,-0.76,20.71
26.167181968688965,10.94,3.36,2.65,11.74
26.17807102203369,5.02,1.62,14.56,15.48
26.19068193435669,4.77,2.26,5.63,7.71
26.211888790130615,2.9,3.15,3.89,5.78
26.212790966033936,-0.18,6.98,-0.89,7.03
26.21799898147583,-2.14,10.52,-1.71,10.87
26.2275128364563,-0.76,10.42,3.37,10.97
26.239181995391846,2.8,7.83,3.42,8.99
26.247498035430908,4.92,4.86,3.5,7.75
26.257499933242798,5.72,2.07,3.13,6.84
26.268321990966797,6.81,-1.42,0.31,6.96
26.27819585800171,8.86,-5.02,-1.71,10.32
26.289556980133057,11.15,-7.67,-1.81,13.65
26.311577796936035,12.5,-8.91,-0.53,15.35
26.31248903274536,12.95,-7.72,0.51,15.08
26.317677974700928,12.89,-5.24,1.88,14.04
26.32764482498169,12.01,-3.47,3.51,12.98
26.33759307861328,11.03,-2.02,5.43,12.45
26.347569942474365,10.4,-1.37,5.71,11.94
26.357724905014038,10.41,-1.54,4.22,11.33
26.368913888931274,10.72,-2.07,1.8,11.06
26.378485918045044,10.53,-1.59,-0.64,10.66
26.38822889328003,9.49,-0.02,-1.92,9.68
26.41121006011963,7.87,1.97,-3.45,8.81
26.412253856658936,5.57,3.77,-7.03,9.72
26.41789698600769,3.09,4.34,-5.37,7.56
26.427937984466553,1.19,4.41,-4.69,6.54
26.43791103363037,-0.3,4.04,-5.13,6.53
26.447911977767944,-1.6,3.63,-5.39,6.69
26.45797109603882,-2.7,3.51,-5.93,7.4
26.46795392036438,-3.39,3.5,-6.11,7.81
26.47871494293213,-3.52,3.52,-6.14,7.9
26.488525867462158,-3.14,3.81,-5.99,7.76
26.505085945129395,-2.63,4.44,-5.4,7.46
26.513216972351074,-2.27,5.21,-4.45,7.21
26.51811408996582,-2.09,6.06,-3.05,7.09
26.528105974197388,-2.14,6.99,-1.66,7.49
26.538076877593994,-2.82,8.02,-0.24,8.5
26.54810380935669,-4.19,9.26,1.14,10.22
26.558722019195557,-5.92,10.52,2.41,12.3
26.56862187385559,-7.56,10.79,3.15,13.54
26.578889846801758,-8.88,9.98,3.37,13.77
26.588568925857544,-10.12,8.94,2.08,13.66
26.60527276992798,-11.14,7.94,-1.68,13.78
26.613318920135498,-12.0,6.5,-3.28,14.03
26.61854600906372,-14.59,4.28,-0.44,15.21
26.628868103027344,-18.63,1.92,2.3,18.86
26.63845205307007,-21.96,-0.05,3.22,22.19
26.648447036743164,-23.82,-1.24,2.03,23.93
26.65900993347168,-25.2,-2.09,-0.2,25.28
26.669081926345825,-25.06,-2.45,-2.15,25.27
26.67908477783203,-23.39,-1.37,-2.19,23.53
26.689012050628662,-20.47,1.23,-1.02,20.53
26.705453872680664,-15.83,4.16,0.97,16.39
26.71349787712097,-9.32,4.88,7.3,12.8
26.71865177154541,6.64,7.84,7.92,12.97
26.72861385345459,33.25,10.51,-7.1,35.58
26.73889398574829,31.31,4.99,-7.47,32.57
26.748621940612793,10.98,3.97,-2.6,11.96
26.759695053100586,-5.2,6.57,1.55,8.52
26.768706798553467,-15.1,10.78,0.11,18.55
26.77942991256714,-13.52,5.7,2.14,14.82
26.78906488418579,-11.39,1.97,0.21,11.56
26.806022882461548,-12.23,1.7,-0.89,12.37
26.814702033996582,-11.8,-0.16,3.26,12.24
26.81920099258423,-10.92,-3.06,0.35,11.34
26.828901767730713,-8.18,-6.67,-4.33,11.4
26.838871002197266,-3.31,-6.82,-2.13,7.87
26.848856925964355,-0.42,-1.68,1.36,2.2
26.85996103286743,2.42,4.11,3.21,5.74
26.869229793548584,7.04,4.6,-1.6,8.56
26.879031896591187,10.62,1.53,-1.29,10.8
26.889626026153564,8.39,-1.51,4.3,9.54
26.906898021697998,3.08,-3.46,3.71,5.93
26.91483783721924,-2.71,-2.2,1.53,3.81
26.919418811798096,-6.29,0.77,-0.39,6.34
26.929697036743164,-6.03,1.32,-2.75,6.75
26.939324855804443,-3.23,-0.17,-3.27,4.59
26.949227809906006,-0.79,-1.06,-1.42,1.94
26.959173917770386,0.45,-0.72,1.82,2.0
26.970025062561035,1.71,-0.22,3.51,3.91
26.979296922683716,2.85,-0.07,1.57,3.25
26.990115880966187,2.93,0.46,-0.7,3.04
27.006733894348145,1.91,0.77,-1.0,2.28
27.014925003051758,0.31,0.53,-0.35,0.7
27.01925277709961,-1.22,0.05,-0.23,1.24
27.02934694290161,-1.95,-0.13,-0.45,2.0
27.040378093719482,-1.79,0.02,-0.54,1.86
27.049509048461914,-0.89,0.07,-0.63,1.09
27.05975103378296,0.0,-0.04,-0.32,0.32
27.070884943008423,0.59,0.04,0.34,0.68
27.079987049102783,1.01,0.22,0.78,1.29
27.090003967285156,1.16,0.19,0.53,1.28
27.107665061950684,1.02,0.09,0.01,1.02
27.11610698699951,0.61,0.12,-0.15,0.63
27.119543075561523,0.15,0.17,-0.48,0.53
27.12961483001709,-0.14,0.2,-0.93,0.96
27.14006996154785,-0.22,0.32,-0.94,1.01
27.149796962738037,-0.15,0.44,-0.69,0.83
27.161746978759766,0.07,0.54,-0.36,0.65
27.169950008392334,0.39,0.61,-0.09,0.72
27.18009090423584,0.67,0.6,0.14,0.91
27.189976930618286,0.85,0.54,0.1,1.01
27.20785093307495,0.91,0.49,-0.43,1.11
27.21612787246704,0.74,0.59,-0.82,1.25
27.220043897628784,0.49,0.82,-0.75,1.21
27.22981095314026,0.38,1.17,-0.57,1.35
27.23983907699585,0.46,1.55,-0.31,1.64
27.249934911727905,0.72,2.04,-0.3,2.18
27.259915828704834,1.16,2.63,-0.62,2.94
27.270774841308594,1.66,3.29,-0.93,3.8
27.280417919158936,2.16,3.76,-0.78,4.4
27.290458917617798,2.58,4.02,-0.23,4.78
27.307537078857422,3.0,4.46,0.15,5.37
27.315815925598145,3.53,5.23,0.49,6.32
27.319945812225342,4.25,6.51,-0.14,7.77
27.330172061920166,4.96,8.84,0.25,10.13
27.340008974075317,5.49,11.62,3.85,13.41
27.350547790527344,7.09,13.07,4.04,15.4
27.360429763793945,9.51,12.67,3.0,16.12
27.370558977127075,12.05,13.14,3.25,18.12
27.380709886550903,14.31,13.42,4.8,20.19
27.390270948410034,15.17,9.7,5.93,18.95
27.407749891281128,13.25,2.89,5.61,14.67
27.416703939437866,8.84,-2.16,5.26,10.51
27.420319080352783,2.25,-3.21,4.84,6.22
27.430240869522095,-4.99,-1.65,5.38,7.52
27.440300941467285,-8.37,0.69,4.79,9.66
27.450313091278076,-7.04,0.61,1.86,7.3
27.461444854736328,-2.65,-0.63,2.07,3.42
27.471144914627075,3.53,-1.81,3.19,5.09
27.480915069580078,9.01,-3.63,3.47,10.31
27.49082088470459,11.16,-5.94,4.02,13.26
27.508090019226074,11.33,-6.82,3.27,13.62
27.51675295829773,11.94,-5.89,2.9,13.62
27.520639896392822,13.0,-3.91,2.56,13.81
27.530526876449585,13.52,-1.73,3.25,14.01
27.54103708267212,13.16,-1.03,4.73,14.02
27.550604820251465,11.91,-2.06,5.97,13.48
27.563623905181885,9.99,-3.61,6.27,12.33
27.57082986831665,7.81,-4.69,6.53,11.2
27.581212997436523,5.65,-4.97,7.1,10.34
27.59110975265503,3.51,-4.43,7.8,9.63
27.60820198059082,1.52,-3.38,8.38,9.16
27.617712020874023,0.03,-2.21,8.36,8.64
27.62065887451172,-0.72,-1.03,7.96,8.05
27.63070797920227,-0.49,0.02,6.76,6.77
27.64072895050049,0.59,1.08,4.98,5.12
27.65186595916748,1.37,2.13,6.63,7.09
27.663474082946777,1.23,2.18,8.02,8.4
27.670808792114258,0.1,1.33,8.75,8.85
27.68133783340454,-1.06,1.09,9.59,9.7
27.69122290611267,-1.47,1.85,10.96,11.21
27.70982789993286,-1.23,2.8,11.6,11.99
27.718597888946533,-1.07,3.22,10.91,11.42
27.72099995613098,-1.29,3.57,10.24,10.92
27.731112003326416,-1.77,4.39,10.17,11.21
27.742176055908203,-2.26,5.22,10.39,11.84
27.75105905532837,-2.58,5.82,10.15,11.98
27.764211893081665,-2.61,6.19,9.74,11.83
27.77139902114868,-2.29,6.33,9.83,11.91
27.781579971313477,-1.81,6.22,10.49,12.32
27.791385889053345,-1.6,5.78,11.24,12.73
27.809144020080566,-1.73,5.2,12.01,13.2
27.811113834381104,-2.26,4.84,12.7,13.77
27.821383953094482,-3.08,4.61,12.77,13.92
27.831167936325073,-3.98,4.51,12.25,13.64
27.842320919036865,-4.96,4.47,11.59,13.37
27.85131597518921,-6.15,4.27,10.97,13.28
27.86525797843933,-7.04,3.65,4.71,9.22
27.871232986450195,-7.96,1.85,0.58,8.19
27.88192391395569,-10.49,-1.51,11.11,15.35
27.891918897628784,-14.78,-3.76,12.42,19.66
27.90928077697754,-18.6,-1.61,6.94,19.91
27.911415100097656,-17.82,2.86,7.74,19.63
27.92222499847412,-15.49,2.83,6.22,16.93
27.931489944458008,-13.32,-0.93,3.19,13.72
27.942208766937256,-14.72,-3.67,0.19,15.17
27.95157790184021,-15.7,-3.17,-1.76,16.11
27.96255588531494,-11.58,0.4,-5.17,12.68
27.9718599319458,0.16,7.02,-1.75,7.23
27.98211693763733,12.49,17.29,10.97,23.98
27.99248504638672,17.44,17.83,-4.79,25.39
28.010409832000732,15.63,1.57,-1.22,15.75
28.01892900466919,-4.8,-8.79,6.15,11.75
28.02195692062378,-17.64,-8.59,3.72,19.96
28.031648874282837,-14.15,-3.71,5.56,15.64
28.04232883453369,-6.18,-0.02,1.77,6.42
28.051753044128418,-0.57,0.45,-0.39,0.82
28.062766075134277,2.9,1.43,-1.15,3.43
28.07212781906128,5.27,2.79,-0.88,6.02
28.08233404159546,5.09,2.42,-0.48,5.65
28.09252405166626,2.31,0.75,-0.45,2.47
28.109781980514526,-0.97,-0.8,-0.26,1.28
28.11181402206421,-3.25,-1.38,0.15,3.53
28.12215280532837,-3.92,-1.02,0.44,4.07
28.131855964660645,-3.25,-0.41,-0.15,3.27
28.142944812774658,-1.82,0.1,-1.06,2.1
28.151896953582764,-0.23,0.56,-1.53,1.64
28.162766933441162,0.94,0.99,-1.34,1.91
28.172602891921997,1.48,0.89,-0.71,1.86
28.18343210220337,1.4,0.36,0.22,1.46
28.19235587120056,0.96,-0.34,0.98,1.41
28.210139751434326,0.69,-1.03,1.05,1.62
28.212007999420166,0.45,-1.0,0.9,1.41
28.22264003753662,0.21,-0.33,0.85,0.93
28.232120037078857,0.16,0.11,0.78,0.8
28.242198944091797,0.22,-0.08,0.62,0.66
28.25220775604248,0.22,-0.44,0.5,0.7
28.262929916381836,0.35,-0.51,0.47,0.77
28.27269196510315,0.5,-0.1,0.5,0.71
28.282631874084473,0.71,0.26,0.21,0.78
28.29274296760559,0.91,0.29,0.09,0.95
28.310128927230835,0.72,0.11,0.11,0.73
28.312273025512695,0.06,-0.02,0.2,0.2
28.322542905807495,-0.62,-0.1,-0.2,0.65
28.33242702484131,-0.99,-0.1,-0.3,1.03
28.342447757720947,-0.72,0.33,0.23,0.82
28.352547883987427,0.33,0.62,-0.11,0.71
28.363213062286377,0.73,0.32,-0.32,0.85
28.37265682220459,0.06,0.14,-0.45,0.47
28.383090019226074,-0.5,0.44,-0.47,0.81
28.39304494857788,-0.36,0.7,-0.58,0.97
28.410895824432373,0.02,0.61,-0.73,0.95
28.4124538898468,0.33,0.52,-1.59,1.7
28.422746896743774,0.27,0.52,-3.09,3.14
28.432631015777588,-0.34,1.11,-2.77,3.0
28.4427969455719,0.82,1.49,-2.4,2.94
28.452767848968506,0.42,2.06,-0.4,2.14
28.462739944458008,0.4,2.39,-0.16,2.42
28.47383403778076,0.58,1.75,0.48,1.9
28.483771800994873,0.7,1.24,2.02,2.47
28.493624925613403,1.7,1.44,3.93,4.51
28.50886106491089,2.86,1.98,3.9,5.22
28.51282787322998,3.13,2.28,2.85,4.8
28.523165941238403,2.71,2.29,2.9,4.58
28.532837867736816,1.87,2.46,2.85,4.2
28.5429949760437,2.07,2.75,1.64,3.81
28.552942752838135,1.75,3.47,1.2,4.06
28.563735961914062,1.8,4.69,0.26,5.03
28.57342290878296,2.06,4.92,-0.35,5.34
28.583480834960938,2.69,4.19,-1.04,5.08
28.593544960021973,2.84,3.82,0.31,4.77
28.610676765441895,3.45,4.25,1.41,5.65
28.61302089691162,4.25,4.58,3.3,7.06
28.62383794784546,5.12,4.65,6.1,9.22
28.6330509185791,6.7,4.95,8.98,12.24
28.644515991210938,9.2,3.8,10.87,14.73
28.65425682067871,10.48,1.39,10.0,14.55
28.663923978805542,9.22,-0.06,10.34,13.85
28.67368507385254,4.95,2.79,11.71,13.01
28.683722019195557,-5.81,10.1,11.97,16.7
28.69388198852539,-12.13,11.46,10.72,19.83
28.71079993247986,-9.19,3.77,7.25,12.29
28.713254928588867,-7.47,1.23,5.39,9.29
28.724031925201416,-9.55,3.88,9.8,14.22
28.733325958251953,-5.5,4.27,9.11,11.46
28.744107961654663,2.13,3.68,6.33,7.62
28.753453969955444,9.15,2.59,2.9,9.94
28.764524936676025,15.62,2.42,-0.82,15.82
28.773910999298096,20.52,4.26,-1.73,21.02
28.785686016082764,21.89,6.6,-0.5,22.86
28.794006824493408,19.63,6.78,2.19,20.88
28.811173915863037,15.98,4.54,4.1,17.11
28.813577890396118,12.61,2.14,4.26,13.48
28.82404375076294,10.06,0.03,4.93,11.2
28.833590984344482,8.37,-1.6,5.25,10.0
28.843719959259033,7.38,-2.65,4.79,9.18
28.85366678237915,7.01,-2.98,3.64,8.44
28.863794803619385,7.23,-2.56,1.77,7.87
28.874438762664795,7.69,-1.21,-2.22,8.09
28.886241912841797,7.72,0.58,-6.7,10.23
28.894015789031982,7.54,2.12,-3.28,8.49
28.91045379638672,7.52,3.0,-3.65,8.88
28.913858890533447,7.24,2.42,-4.84,9.03
28.924213886260986,6.52,1.54,-7.39,9.97
28.93498992919922,5.61,1.25,-9.85,11.4
28.944411754608154,4.66,1.2,-10.77,11.79
28.95383310317993,3.81,1.08,-11.51,12.17
28.964693069458008,3.17,0.82,-11.34,11.8
28.974366903305054,2.88,0.66,-10.38,10.79
28.986586093902588,3.04,0.64,-9.21,9.71
28.9943790435791,3.45,0.74,-8.76,9.44
29.011913776397705,3.85,1.07,-8.56,9.44
29.01401996612549,4.01,1.8,-7.75,8.9
29.024642944335938,3.85,3.01,-6.92,8.47
29.035444974899292,3.12,4.58,-5.97,8.14
29.04471206665039,1.68,6.35,-4.86,8.17
29.054040908813477,-0.15,8.2,-4.18,9.2
29.064868927001953,-2.06,10.03,-4.2,11.06
29.074490070343018,-4.13,11.4,-3.92,12.74
29.087081909179688,-6.3,11.86,-3.37,13.84
29.09448480606079,-8.2,11.48,-2.32,14.29
29.111755847930908,-9.68,10.81,-1.58,14.59
29.114304065704346,-10.82,9.9,-1.38,14.73
29.12451982498169,-12.21,9.18,-1.79,15.38
29.13585591316223,-14.14,8.57,-1.9,16.64
29.14551305770874,-16.68,7.36,-1.73,18.31
29.154300928115845,-19.65,4.8,0.22,20.22
29.164899826049805,-23.01,1.25,1.09,23.06
29.17522692680359,-25.56,-1.88,1.96,25.7
29.187455892562866,-26.0,-2.54,5.1,26.61
29.194955825805664,-24.48,-2.13,5.21,25.11
29.211924076080322,-23.08,-1.75,2.08,23.23
29.214375972747803,-21.51,0.1,0.97,21.53
29.224859952926636,-19.89,-0.64,1.67,19.97
29.23636293411255,-10.16,2.67,9.11,13.9
29.244682788848877,7.49,15.56,-6.03,18.29
29.254780769348145,20.93,13.61,-17.42,30.44
29.264731884002686,17.18,9.33,-10.08,21.99
29.275135040283203,5.37,6.73,-4.94,9.92
29.287642002105713,-2.59,5.35,-4.87,7.68
29.294976949691772,-6.33,4.54,9.06,11.94
29.31312608718872,-7.43,1.93,4.85,9.08
29.314595937728882,-10.42,0.17,2.55,10.72
29.325442790985107,-15.08,0.03,-1.58,15.16
29.335280895233154,-13.95,-3.17,1.24,14.35
29.34556007385254,-9.94,-3.43,-0.28,10.51
29.354887008666992,-5.39,-2.54,0.58,5.98
29.36655282974243,-0.55,-2.27,0.65,2.42
29.375208854675293,1.2,-1.62,0.99,2.24
29.385385036468506,0.68,1.27,2.26,2.68
29.395376920700073,1.22,4.39,-2.74,5.31
29.413125038146973,4.84,6.36,-10.81,13.44
29.41485095024109,6.93,4.95,-5.7,10.24
29.425157070159912,5.1,-1.22,1.5,5.45
29.43497085571289,0.47,-5.05,2.19,5.52
29.44622278213501,-4.89,-2.98,3.26,6.58
29.454999923706055,-7.0,0.13,3.36,7.76
29.466145038604736,-4.48,0.39,-0.59,4.53
29.47554302215576,0.16,-0.06,-2.91,2.91
29.485567092895508,2.93,-0.45,-0.96,3.11
29.495471954345703,2.71,-0.95,1.64,3.3
29.512831926345825,1.4,-0.69,3.0,3.38
29.515058994293213,0.99,0.19,2.78,2.95
29.52524995803833,1.57,0.38,0.87,1.83
29.53522491455078,1.72,0.06,-0.78,1.88
29.545403957366943,0.55,-0.32,-0.93,1.12
29.55523109436035,-1.22,-0.77,0.07,1.44
29.565988063812256,-2.24,-0.96,1.21,2.72
29.575307846069336,-1.86,-0.93,1.52,2.57
29.586246967315674,-0.53,-0.76,0.79,1.21
29.59571886062622,0.86,-0.06,-0.08,0.86
29.613197803497314,1.63,0.34,-0.12,1.66
29.61531090736389,1.61,-0.18,0.61,1.73
29.626770973205566,1.14,-0.92,1.46,2.06
29.63541889190674,0.58,-1.1,1.55,1.98
29.6456937789917,0.21,-0.17,1.08,1.11
29.65552592277527,0.11,0.87,0.52,1.01
29.66655397415161,0.28,0.75,-0.8,1.13
29.676386833190918,0.23,0.94,-1.36,1.66
29.686058044433594,-0.16,1.06,-1.24,1.63
29.695780754089355,-0.36,0.74,-0.84,1.17
29.71348476409912,-0.3,0.77,-0.08,0.83
29.71558380126953,0.15,0.7,0.84,1.1
29.72719383239746,1.23,2.2,3.62,4.41
29.736145973205566,3.0,0.08,2.84,4.13
29.745872020721436,3.14,-0.97,1.66,3.68
29.755879878997803,1.21,0.77,3.09,3.4
29.766654014587402,0.43,1.56,0.81,1.8
29.77631187438965,0.52,2.05,-2.22,3.06
29.78617000579834,0.31,2.71,-3.9,4.75
29.796119928359985,-0.29,3.42,-3.88,5.18
29.81414794921875,-0.13,3.96,-3.33,5.17
29.8158278465271,0.89,4.39,-2.71,5.23
29.827691078186035,2.03,4.54,-1.74,5.26
29.83588695526123,2.95,4.58,-0.52,5.47
29.847079753875732,3.52,4.69,0.47,5.88
29.85591697692871,3.96,5.0,1.04,6.46
29.86697292327881,4.45,6.08,-0.07,7.53
29.876458883285522,4.67,7.92,1.03,9.25
29.886271953582764,5.54,9.84,4.49,12.15
29.896471977233887,7.99,11.06,3.55,14.09
29.913858890533447,10.87,11.43,2.31,15.94
29.916186809539795,13.57,11.18,2.76,17.79
29.92808198928833,15.21,11.01,2.88,18.99
29.936134815216064,17.0,9.62,2.01,19.63
29.946292877197266,17.76,6.95,2.12,19.18
29.95627784729004,15.24,4.03,2.85,16.01
29.96709680557251,9.73,3.11,3.53,10.8
29.97677993774414,4.13,3.51,9.16,10.64
29.986649990081787,2.18,3.03,11.55,12.13
29.996912002563477,-0.03,3.52,7.09,7.91
30.013548851013184,-3.39,6.04,2.78,7.46
30.016386032104492,-5.39,7.81,0.59,9.5
30.028321981430054,-4.51,7.9,2.89,9.54
30.037583827972412,-1.49,7.07,5.42,9.03
