time,ax,ay,az,atotal
0.004993915557861328,0.19,-0.02,-0.09,0.21
0.012361764907836914,0.09,0.11,0.02,0.14
0.02324700355529785,-0.06,0.1,0.01,0.11
0.03298211097717285,-0.12,0.18,0.06,0.22
0.04238009452819824,-0.1,0.23,0.05,0.25
0.05226302146911621,-0.1,0.19,-0.02,0.21
0.06243777275085449,-0.09,0.09,-0.13,0.18
0.07245802879333496,0.09,-0.01,-0.11,0.14
0.08241391181945801,0.2,-0.09,-0.16,0.27
0.09318709373474121,0.14,-0.21,-0.16,0.29
0.1030271053314209,0.18,-0.3,-0.04,0.35
0.11445879936218262,0.33,-0.24,0.03,0.4
0.12451577186584473,0.24,-0.2,0.1,0.32
0.13310694694519043,0.06,-0.24,0.09,0.26
0.14264297485351562,0.13,-0.2,0.04,0.24
0.15271496772766113,0.18,-0.24,0.06,0.3
0.1634199619293213,0.15,-0.22,0.11,0.28
0.17315196990966797,0.28,-0.09,-0.02,0.29
0.18296194076538086,0.06,0.03,0.11,0.12
0.1931750774383545,-0.08,0.06,0.06,0.11
0.2033097743988037,0.01,0.23,0.04,0.23
0.21534180641174316,-0.04,0.28,0.09,0.29
0.22509288787841797,-0.09,0.23,0.01,0.24
0.23325896263122559,-0.15,0.19,-0.15,0.28
0.24289202690124512,-0.09,0.08,-0.22,0.25
0.2528519630432129,0.16,-0.08,-0.09,0.2
0.2636539936065674,0.35,-0.2,-0.06,0.4
0.2729060649871826,0.26,-0.43,0.03,0.5
0.2835559844970703,0.32,-0.69,0.18,0.78
0.29338908195495605,0.56,-0.68,0.44,0.98
0.3033487796783447,0.47,-0.56,0.7,1.01
0.31530308723449707,0.17,-0.56,0.64,0.86
0.32531094551086426,0.06,-0.55,0.68,0.87
0.332960844039917,0.21,-0.44,0.64,0.8
0.3441298007965088,0.33,-0.26,0.49,0.64
0.3535268306732178,0.24,-0.12,0.33,0.42
0.3639090061187744,0.11,-0.09,0.13,0.19
0.37342286109924316,0.16,-0.07,-0.02,0.17
0.3835427761077881,0.37,-0.11,-0.17,0.42
0.3936598300933838,0.45,-0.24,-0.33,0.6
0.40369391441345215,0.53,-0.35,-0.06,0.63
0.4155879020690918,0.59,-0.39,0.05,0.7
0.4257779121398926,0.48,-0.34,0.32,0.66
0.43320393562316895,0.3,-0.4,0.56,0.75
0.44436192512512207,0.13,-0.34,0.55,0.65
0.45326685905456543,-0.12,-0.36,0.75,0.84
0.46413302421569824,-0.12,-0.43,0.71,0.83
0.4738447666168213,-0.02,-0.27,0.44,0.51
0.4836537837982178,-0.01,-0.05,0.22,0.22
0.49384593963623047,0.02,0.04,0.03,0.05
0.5060398578643799,0.29,0.02,-0.18,0.34
0.5169339179992676,0.28,0.07,-0.24,0.37
0.5262799263000488,0.4,0.1,-0.38,0.56
0.5335099697113037,0.67,0.19,-0.53,0.87
0.5443260669708252,0.32,0.22,-0.44,0.58
0.5534489154815674,0.21,0.1,-0.64,0.68
0.5635077953338623,0.2,0.04,-0.74,0.76
0.5747509002685547,0.24,0.03,-0.7,0.74
0.5839130878448486,0.37,-0.04,-0.66,0.75
0.5939679145812988,0.49,-0.21,-0.49,0.72
0.6056709289550781,0.63,-0.45,-0.35,0.84
0.6154129505157471,0.73,-0.76,-0.38,1.12
0.6264560222625732,0.72,-1.0,-0.81,1.47
0.6338608264923096,0.37,-1.09,-1.29,1.72
0.6442999839782715,0.12,-0.47,-2.37,2.41
0.6536669731140137,-0.46,-1.21,-4.54,4.72
0.6648190021514893,-0.77,-0.54,-4.74,4.83
0.6737668514251709,0.58,2.17,-2.37,3.26
0.6845700740814209,2.66,2.46,-1.89,4.08
0.6941039562225342,3.14,0.91,-3.25,4.6
0.7056069374084473,1.67,0.81,-2.66,3.24
0.7164218425750732,-0.42,1.1,-0.92,1.49
0.7269949913024902,-2.06,0.08,-0.27,2.07
0.7338778972625732,-2.71,-0.88,0.25,2.86
0.7440760135650635,-2.64,-1.05,0.96,2.99
0.754986047744751,-1.87,-0.72,1.34,2.41
0.7648561000823975,-0.83,-0.17,1.43,1.66
0.774467945098877,-0.14,0.19,1.44,1.45
0.7846457958221436,0.0,0.18,1.6,1.61
0.7947549819946289,-0.42,-0.17,1.95,2.0
0.8064401149749756,-1.06,-0.65,2.11,2.44
0.8158619403839111,-1.38,-0.93,2.23,2.78
0.827233076095581,-1.27,-0.84,2.13,2.61
0.8340628147125244,-1.23,-0.51,2.19,2.56
0.8452417850494385,-1.11,-0.2,2.18,2.45
0.8554348945617676,-1.17,-0.09,1.98,2.3
0.8652129173278809,-1.32,-0.06,1.72,2.16
0.874182939529419,-1.39,0.0,1.52,2.05
0.8849139213562012,-1.08,0.19,1.43,1.8
0.894726037979126,-0.52,0.31,0.97,1.14
0.9068799018859863,-0.04,0.64,0.66,0.92
0.9168570041656494,0.12,1.15,0.31,1.19
0.9278459548950195,0.05,1.41,-0.2,1.42
0.9343140125274658,-0.04,1.28,-0.7,1.45
0.9443991184234619,-0.16,0.96,-0.97,1.37
0.9556920528411865,-0.22,0.76,-0.9,1.19
0.9643900394439697,-0.17,0.68,-1.01,1.22
0.9753258228302002,0.04,0.64,-1.24,1.39
0.9847757816314697,0.34,0.81,-1.21,1.49
0.994926929473877,0.44,1.12,-1.01,1.57
1.007323980331421,0.31,1.25,-1.1,1.69
1.0168688297271729,0.0,1.19,-1.25,1.72
1.0281789302825928,-0.34,1.2,-1.05,1.63
1.034592866897583,-0.61,0.98,-0.82,1.41
1.0446088314056396,-0.6,0.56,-0.62,1.02
1.0561110973358154,-0.35,0.24,-0.3,0.51
1.0647149085998535,-0.11,0.05,-0.05,0.13
1.0746219158172607,0.11,-0.01,0.02,0.11
1.0845439434051514,0.26,-0.02,0.05,0.26
1.095566987991333,0.24,-0.17,0.13,0.32
1.1079039573669434,0.13,-0.43,0.3,0.54
1.1158130168914795,0.12,-0.59,0.5,0.78
1.1283619403839111,0.17,-0.58,0.57,0.83
1.1348121166229248,0.24,-0.49,0.64,0.84
1.1448869705200195,0.33,-0.52,0.75,0.97
1.1565749645233154,0.38,-0.62,0.81,1.08
1.1647839546203613,0.34,-0.69,0.81,1.11
1.174921989440918,0.39,-0.73,0.76,1.12
1.1862149238586426,0.27,-0.62,0.77,1.02
1.1948368549346924,0.23,-0.6,0.53,0.83
1.2080028057098389,0.24,-0.5,0.4,0.68
1.2167329788208008,0.28,-0.4,0.33,0.58
1.228787899017334,0.38,-0.43,0.2,0.6
1.2350289821624756,0.47,-0.45,0.07,0.65
1.245042085647583,0.39,-0.31,0.07,0.5
1.2558999061584473,0.18,-0.06,0.1,0.21
1.2650978565216064,0.0,0.14,-0.06,0.15
1.276581048965454,-0.2,0.27,-0.2,0.39
1.2852118015289307,-0.21,0.3,-0.25,0.44
1.2956268787384033,-0.08,0.21,-0.3,0.37
1.3072187900543213,0.02,0.11,-0.35,0.36
1.3151609897613525,-0.07,0.11,-0.29,0.31
1.3292648792266846,-0.2,0.22,-0.22,0.36
1.3352878093719482,-0.31,0.55,-0.26,0.68
1.3453900814056396,-0.6,1.2,-0.23,1.36
1.3573191165924072,-1.1,1.85,-0.31,2.17
1.36539888381958,-1.52,2.12,-0.63,2.68
1.3764498233795166,-1.55,1.8,-0.96,2.56
1.3854179382324219,-1.11,1.19,-0.89,1.85
1.3954870700836182,-0.45,0.57,-0.29,0.78
1.4054229259490967,0.09,-0.04,0.36,0.37
1.416558027267456,0.47,-0.55,0.51,0.88
1.429419994354248,0.58,-0.59,0.26,0.86
1.4354419708251953,0.43,-0.28,-0.06,0.51
1.4461028575897217,0.27,-0.11,-0.36,0.46
1.4555559158325195,0.29,-0.2,-0.42,0.54
1.4656078815460205,0.47,-0.41,-0.06,0.62
1.4760029315948486,0.61,-0.65,0.45,0.99
1.4856979846954346,0.57,-0.78,0.8,1.25
1.4962139129638672,0.39,-0.62,0.86,1.12
1.5057427883148193,0.26,-0.3,0.59,0.71
1.5175368785858154,0.17,-0.04,0.25,0.3
1.5299170017242432,0.05,0.07,0.12,0.14
1.5356299877166748,0.07,0.01,0.03,0.07
1.5462968349456787,0.21,-0.09,-0.03,0.23
1.5576069355010986,0.34,-0.09,-0.08,0.36
1.5658469200134277,0.34,0.0,-0.17,0.38
1.5762689113616943,0.24,0.13,-0.29,0.39
1.5859100818634033,0.08,0.2,-0.37,0.42
1.5962750911712646,-0.04,0.23,-0.33,0.4
1.6063439846038818,-0.1,0.22,-0.23,0.33
1.6183230876922607,-0.14,0.18,-0.15,0.27
1.630342960357666,-0.27,0.13,-0.04,0.3
1.635936975479126,-0.42,0.12,0.1,0.44
1.6470708847045898,-0.51,0.08,0.21,0.55
1.656008005142212,-0.49,0.05,0.23,0.54
1.6660130023956299,-0.41,0.1,0.21,0.47
1.6771678924560547,-0.35,0.17,0.2,0.43
1.6864449977874756,-0.29,0.12,0.04,0.31
1.6962878704071045,-0.29,-0.11,-0.05,0.31
1.7067458629608154,-0.08,0.06,0.2,0.22
1.7181270122528076,0.46,0.03,0.15,0.48
1.7306888103485107,0.4,0.01,-0.04,0.4
1.7360739707946777,0.01,0.15,-0.07,0.16
1.746189832687378,-0.14,0.16,0.01,0.21
1.7561829090118408,-0.09,0.04,0.06,0.11
1.7662041187286377,-0.08,-0.03,0.22,0.23
1.776728868484497,-0.13,-0.02,0.28,0.3
1.7867801189422607,-0.19,0.0,0.15,0.24
1.7968018054962158,-0.15,0.05,0.0,0.15
1.8067710399627686,-0.05,0.04,-0.06,0.08
1.8180677890777588,0.07,0.02,-0.06,0.09
1.830744981765747,0.22,0.02,-0.19,0.29
1.836460828781128,0.3,0.09,-0.42,0.52
1.8464128971099854,0.12,0.13,-0.31,0.35
1.857414960861206,0.28,0.21,-0.14,0.37
1.8664968013763428,0.51,0.05,-0.13,0.52
1.8775639533996582,0.26,-0.02,-0.03,0.26
1.8867669105529785,-0.02,-0.03,0.09,0.09
1.8969848155975342,-0.07,-0.04,0.13,0.15
1.9068820476531982,-0.1,0.02,0.27,0.28
1.9165689945220947,-0.12,0.09,0.25,0.29
1.9315650463104248,-0.08,0.0,0.13,0.15
1.936702013015747,0.07,-0.11,0.06,0.14
1.9466440677642822,0.26,-0.16,0.05,0.3
1.9570329189300537,0.34,-0.05,0.1,0.35
1.968303918838501,0.24,0.11,0.12,0.28
1.9772179126739502,0.07,0.18,0.03,0.19
1.987170934677124,-0.08,0.11,0.06,0.14
1.997164011001587,-0.12,0.05,0.18,0.22
2.007690906524658,-0.07,0.02,0.14,0.15
2.0205419063568115,0.07,-0.05,0.11,0.13
2.031834840774536,0.2,-0.09,0.17,0.27
2.036724805831909,0.18,-0.16,0.12,0.26
2.0468509197235107,0.12,-0.19,0.03,0.22
2.0576350688934326,0.08,-0.1,0.0,0.12
2.0675439834594727,0.06,0.02,-0.05,0.08
2.0771877765655518,0.06,0.03,0.05,0.08
2.0875658988952637,0.1,-0.14,0.18,0.24
2.0977189540863037,0.07,-0.26,0.15,0.3
2.107301950454712,0.12,-0.2,0.02,0.23
2.119274854660034,0.23,-0.02,0.04,0.23
2.1318109035491943,0.23,0.14,0.01,0.26
2.137018918991089,0.2,0.08,-0.07,0.22
2.147063970565796,0.15,-0.02,0.12,0.19
2.1576740741729736,0.03,-0.04,0.19,0.19
2.167466878890991,-0.04,-0.07,0.1,0.12
2.177628993988037,0.04,-0.21,0.13,0.25
2.187386989593506,0.05,-0.19,0.24,0.31
2.197598934173584,-0.08,-0.02,0.0,0.08
2.2076170444488525,-0.1,0.17,-0.31,0.36
2.219259023666382,0.06,0.22,-0.4,0.46
2.2327089309692383,0.27,0.15,-0.34,0.45
2.237266778945923,0.37,0.11,-0.11,0.4
2.247269868850708,0.28,0.17,0.14,0.35
2.2583699226379395,-0.06,0.22,0.09,0.24
2.268112897872925,-0.35,0.17,-0.08,0.39
2.2777459621429443,-0.33,0.0,-0.08,0.33
2.287970781326294,-0.12,-0.12,0.08,0.18
2.2979238033294678,-0.03,-0.01,0.17,0.17
2.307513952255249,-0.14,0.22,0.04,0.26
2.3189938068389893,-0.14,0.34,-0.24,0.43
2.332974910736084,-0.2,0.38,-0.51,0.66
2.3374240398406982,-0.16,0.27,-0.64,0.71
2.3474690914154053,0.0,0.22,-0.45,0.5
2.357909917831421,0.05,0.2,-0.31,0.37
2.368389844894409,-0.01,0.23,-0.42,0.47
2.3779139518737793,-0.01,0.42,-0.65,0.77
2.3880269527435303,0.12,0.66,-1.0,1.2
2.3983089923858643,0.36,1.02,-1.19,1.6
2.4082629680633545,0.69,1.11,-1.37,1.89
2.4204249382019043,0.95,0.54,-1.79,2.09
2.433443784713745,1.23,0.27,-1.69,2.1
2.437711000442505,1.13,0.25,-2.02,2.32
2.447697877883911,0.55,0.43,-2.81,2.89
2.458380937576294,-0.25,0.94,-3.17,3.31
2.467763900756836,-1.55,1.34,-3.38,3.95
2.4800188541412354,-2.98,1.55,-2.84,4.39
2.487989902496338,-3.21,1.86,-1.86,4.15
2.4981939792633057,-1.64,1.96,-0.65,2.63
2.5081188678741455,-0.1,1.05,1.92,2.19
2.5189688205718994,0.77,-0.5,-1.24,1.54
2.533734083175659,-0.8,1.14,-3.36,3.63
2.5378849506378174,-2.87,1.56,-1.92,3.78
2.54797101020813,-3.96,0.44,-0.98,4.1
2.5577948093414307,-3.71,-0.62,-1.3,3.97
2.5680158138275146,-3.61,-1.33,-1.93,4.3
2.5778729915618896,-3.94,-1.99,-2.62,5.13
2.588813066482544,-4.3,-2.63,-3.38,6.06
2.598517894744873,-4.37,-2.92,-3.59,6.36
2.608189821243286,-3.94,-2.9,-3.81,6.2
2.6203489303588867,-3.15,-2.6,-4.44,6.03
2.6342029571533203,-2.09,-1.92,-5.48,6.17
2.638148069381714,-0.75,-0.83,-6.62,6.71
2.6481239795684814,0.69,0.36,-7.43,7.47
2.659130811691284,1.81,0.98,-7.32,7.6
2.6697170734405518,2.33,0.62,-6.07,6.53
2.6802618503570557,2.23,-0.24,-4.36,4.9
2.688663959503174,1.66,-0.85,-2.82,3.38
2.698836088180542,0.79,-1.09,-1.77,2.22
2.7087039947509766,-0.14,-1.06,-1.24,1.63
2.7205698490142822,-1.11,-0.96,-1.18,1.88
2.73459792137146,-1.98,-0.7,-1.15,2.39
2.7383079528808594,-2.53,-0.32,-1.05,2.75
2.7487738132476807,-2.87,-0.22,-1.09,3.07
2.759298086166382,-2.89,-0.08,-0.84,3.01
2.76842999458313,-2.47,0.14,-0.36,2.5
2.7809228897094727,-1.86,0.2,-0.21,1.88
2.789130926132202,-1.22,0.28,-0.3,1.28
2.798999071121216,-0.57,0.41,-0.59,0.91
2.80899977684021,-0.34,0.14,-1.35,1.39
2.8207449913024902,-0.37,0.03,-1.64,1.68
2.8349199295043945,-0.56,0.21,-1.18,1.32
2.8385660648345947,-1.18,0.04,-0.82,1.43
2.8487260341644287,-2.12,-0.37,-0.56,2.22
2.8586318492889404,-2.82,-0.48,0.09,2.86
2.869239091873169,-2.77,-0.18,1.32,3.07
2.87992787361145,-1.89,0.09,2.46,3.1
2.889441967010498,-0.52,0.01,2.97,3.01
2.8991048336029053,0.94,-0.14,2.98,3.12
2.908837080001831,2.37,0.04,2.99,3.81
2.920788049697876,3.7,0.5,3.2,4.91
2.935343027114868,4.8,0.9,3.44,5.97
2.9387691020965576,5.48,0.96,3.59,6.62
2.9486677646636963,5.5,0.8,3.8,6.73
2.9587669372558594,4.95,0.66,4.22,6.53
2.9696409702301025,4.23,0.47,4.7,6.34
2.981806993484497,3.71,0.19,5.05,6.26
2.9892029762268066,3.57,-0.33,5.11,6.24
2.999217987060547,3.71,-0.97,4.95,6.26
3.0090157985687256,3.97,-1.33,4.98,6.5
3.0216269493103027,4.16,-1.45,4.93,6.61
3.0359270572662354,4.3,-1.43,4.71,6.53
3.0390779972076416,4.36,-1.49,4.2,6.23
3.0489299297332764,4.35,-1.63,3.44,5.78
3.0590031147003174,4.08,-1.37,2.55,5.0
3.069088935852051,2.79,-1.07,-0.72,3.07
3.0820178985595703,-5.86,5.58,0.44,8.1
3.089416980743408,-22.45,7.34,-6.54,24.5
3.0998470783233643,-19.96,13.45,-5.81,24.76
3.1094000339508057,-7.23,16.32,9.45,20.19
3.1212270259857178,1.72,1.5,3.13,3.87
3.1361069679260254,14.98,-6.58,-3.1,16.65
3.13922381401062,22.32,-8.39,-6.96,24.83
3.1494028568267822,20.41,-4.49,-4.18,21.31
3.1600089073181152,12.15,3.45,6.28,14.1
3.169710874557495,3.86,6.99,10.04,12.82
3.182384967803955,0.63,4.78,5.6,7.38
3.1898128986358643,1.36,0.28,-2.27,2.66
3.1998329162597656,2.75,-0.85,-7.44,7.97
3.209843873977661,2.54,1.81,-7.59,8.2
3.2210659980773926,-0.37,4.08,-3.68,5.5
3.23567795753479,-2.71,2.41,1.11,3.79
3.2397258281707764,-4.68,-4.87,9.97,12.04
3.2494537830352783,-4.77,-10.1,9.57,14.7
3.2595129013061523,-1.92,-3.95,0.07,4.39
3.26944899559021,0.82,3.68,-0.25,3.77
3.2832300662994385,2.62,3.49,-0.74,4.42
3.2898149490356445,2.57,-0.32,-1.31,2.9
3.3000590801239014,0.34,-2.16,2.21,3.1
3.3099730014801025,-2.03,-1.77,2.4,3.6
3.3214328289031982,-2.23,-0.26,-0.07,2.24
3.3360579013824463,-1.52,0.5,-0.56,1.69
3.3396060466766357,-0.21,0.14,-0.61,0.66
3.3497509956359863,0.61,-0.05,-0.43,0.74
3.360729932785034,0.68,0.19,0.01,0.7
3.370572805404663,0.37,0.27,0.24,0.51
3.3831450939178467,-0.18,0.1,0.25,0.32
3.3902859687805176,-0.59,-0.17,0.17,0.63
3.4002320766448975,-0.6,-0.25,0.23,0.68
3.410111904144287,-0.42,-0.1,0.49,0.65
3.4222159385681152,-0.3,-0.04,0.51,0.59
3.4297878742218018,-0.21,-0.08,0.34,0.4
3.440675973892212,-0.1,-0.01,0.23,0.25
3.4498329162597656,0.03,0.11,0.04,0.12
3.461171865463257,0.17,0.21,-0.21,0.34
3.4705488681793213,0.25,0.33,-0.35,0.54
3.4803740978240967,0.17,0.33,-0.37,0.52
3.4902279376983643,0.05,0.1,-0.4,0.41
3.500507116317749,0.05,-0.09,-0.25,0.27
3.5105929374694824,0.05,-0.08,0.19,0.21
3.5236148834228516,0.07,-0.17,0.53,0.56
3.530647039413452,0.11,-0.33,0.55,0.65
3.541455030441284,0.05,-0.3,0.58,0.65
3.5500738620758057,-0.13,-0.14,0.75,0.77
3.560966968536377,-0.44,-0.14,0.9,1.01
3.571227788925171,-0.66,-0.3,0.92,1.17
3.5805327892303467,-0.56,-0.6,0.63,1.03
3.5904037952423096,-0.13,-0.5,0.41,0.65
3.6005680561065674,0.24,0.01,0.45,0.51
3.610691785812378,0.44,0.04,0.16,0.46
3.6229450702667236,0.53,-0.06,-0.27,0.59
3.6303389072418213,0.56,0.22,-0.38,0.71
3.6404049396514893,0.42,0.56,-0.45,0.83
3.6503078937530518,0.19,0.56,-0.52,0.78
3.661257028579712,-0.07,0.23,-0.54,0.59
3.6714608669281006,-0.24,0.11,-0.19,0.32
3.68127179145813,-0.33,0.14,0.26,0.44
3.69075083732605,-0.42,0.15,0.58,0.73
3.7006990909576416,-0.55,0.24,0.67,0.89
3.7107551097869873,-0.69,0.25,0.57,0.92
3.7230560779571533,-0.82,0.18,0.45,0.95
3.7304980754852295,-0.81,0.17,0.26,0.86
3.740510940551758,-0.67,0.3,0.11,0.74
3.7505791187286377,-0.42,0.59,-0.02,0.72
3.7605860233306885,-0.3,0.51,-0.33,0.67
3.7713589668273926,-0.33,0.48,-0.5,0.76
3.781172037124634,-0.55,0.58,-0.31,0.85
3.7911429405212402,-0.77,0.71,0.16,1.05
3.8012897968292236,-0.98,0.69,0.41,1.26
3.811332941055298,-1.19,0.53,0.47,1.38
3.823240041732788,-1.24,0.69,0.53,1.51
3.831777811050415,-1.11,0.88,0.24,1.43
3.840775966644287,-0.94,1.05,-0.13,1.41
3.850796937942505,-0.78,2.11,0.13,2.25
3.8609249591827393,-1.5,1.36,0.92,2.22
3.871701955795288,-1.58,0.22,0.5,1.67
3.8809309005737305,-0.94,1.45,0.02,1.72
3.8913729190826416,-1.13,3.14,-0.48,3.37
3.9020397663116455,-1.53,4.07,-1.18,4.5
3.911562919616699,-1.97,5.8,0.25,6.13
3.924376964569092,-2.76,7.54,0.99,8.09
3.930931806564331,-4.03,7.32,-1.11,8.42
3.940988779067993,-5.2,6.76,-2.38,8.85
3.950941801071167,-5.4,7.31,-1.55,9.21
3.9609808921813965,-5.15,7.99,-1.0,9.55
3.971040964126587,-5.27,8.73,-0.56,10.21
3.9819858074188232,-5.74,9.73,0.08,11.29
3.9920618534088135,-6.32,9.24,-0.53,11.2
4.00170111656189,-6.63,7.16,-1.28,9.84
4.011478900909424,-7.53,6.17,1.45,9.84
4.023988962173462,-6.81,7.41,8.61,13.24
4.0311009883880615,-4.92,7.9,12.35,15.46
4.041701078414917,-5.09,5.24,8.11,10.91
4.0511839389801025,-5.45,3.61,5.53,8.56
4.061819791793823,-5.25,4.33,5.59,8.8
4.071264982223511,-4.86,5.09,4.69,8.45
4.082002878189087,-4.06,4.4,2.23,6.38
4.091262102127075,-1.48,3.87,-0.03,4.14
4.101785898208618,1.35,4.68,-1.16,5.0
4.111790895462036,1.78,4.92,-0.66,5.27
4.124706983566284,-1.11,3.23,-0.3,3.42
4.131371974945068,-5.87,0.7,-1.02,5.99
4.14152979850769,-10.71,-0.82,-0.97,10.78
4.151391983032227,-14.2,-1.64,-0.05,14.29
4.162540912628174,-15.53,-3.29,0.29,15.87
4.171507120132446,-16.56,-4.84,7.54,18.82
4.182585000991821,-17.08,-5.62,13.94,22.75
4.192245960235596,-14.57,-5.03,7.15,16.99
4.201896905899048,-11.27,-3.0,2.72,11.97
4.211936950683594,-8.51,-1.51,1.57,8.78
4.224531888961792,-6.15,-1.25,0.49,6.29
4.231531858444214,-3.92,-1.09,-0.18,4.07
4.2418999671936035,-2.51,0.19,0.51,2.56
4.251568078994751,-1.4,1.39,1.53,2.49
4.261807918548584,-0.77,0.98,1.04,1.62
4.271740913391113,-0.88,-0.13,-0.12,0.89
4.282545804977417,-1.72,-0.32,-0.02,1.74
4.2922608852386475,-2.74,-0.01,0.76,2.84
4.3021910190582275,-3.43,-0.12,1.15,3.61
4.31224799156189,-3.57,-0.46,1.25,3.81
4.325889825820923,-3.23,-0.7,1.11,3.48
4.331873893737793,-2.64,-0.66,0.77,2.82
4.341958999633789,-1.93,-0.28,0.26,1.96
4.351796865463257,-1.17,0.24,-0.4,1.25
4.362937927246094,-0.51,0.65,-1.21,1.46
4.371844053268433,-0.01,1.14,-1.84,2.16
4.382779836654663,0.25,1.99,-2.03,2.85
4.392446994781494,0.22,3.12,-1.99,3.7
4.402504920959473,0.11,4.5,-1.83,4.85
4.4122068881988525,0.56,5.68,-1.91,6.01
4.426367998123169,2.09,6.52,-2.31,7.22
4.432060956954956,4.77,7.24,-2.64,9.06
4.442664861679077,7.99,7.87,-2.87,11.57
4.4532248973846436,10.91,8.17,-3.04,13.96
4.463215112686157,13.09,7.86,-3.14,15.58
4.4730329513549805,14.47,6.89,-3.21,16.34
4.48228907585144,15.22,5.6,-2.86,16.46
4.4927308559417725,15.52,4.41,-1.69,16.22
4.504194974899292,15.63,3.38,-0.18,15.99
4.512480020523071,15.78,2.28,1.33,15.99
4.525885820388794,16.06,1.09,2.51,16.29
4.532218933105469,16.41,-0.2,2.94,16.67
4.542991876602173,16.77,-1.42,3.0,17.09
4.552236795425415,17.25,-2.39,3.79,17.82
4.5633227825164795,17.82,-2.93,5.56,18.89
4.572381973266602,17.46,-2.63,6.56,18.83
4.583986043930054,16.13,-1.69,6.05,17.3
4.592861890792847,13.47,3.12,10.28,17.22
4.604606866836548,7.53,10.24,15.48,20.02
4.613018989562988,-8.0,13.23,2.67,15.68
4.6320788860321045,-25.45,12.7,-13.36,31.42
4.634238958358765,-23.45,8.32,-12.87,28.01
4.642483949661255,-8.54,1.99,2.69,9.17
4.6523277759552,4.0,1.99,14.6,15.26
4.663511037826538,9.26,1.5,15.36,17.99
4.672640085220337,12.4,-9.27,2.71,15.71
4.683443784713745,20.2,-12.61,-4.83,24.29
4.693066835403442,22.77,-7.03,-5.73,24.5
4.705071926116943,17.25,0.27,-0.19,17.25
4.712955951690674,8.38,4.54,2.29,9.8
4.726090908050537,0.43,5.16,-0.56,5.2
4.732630968093872,-2.92,4.18,-4.43,6.75
4.743393898010254,-5.61,3.26,-8.68,10.83
4.7538769245147705,-10.14,1.59,-10.73,14.84
4.763340950012207,-11.54,2.1,-6.12,13.23
4.774464845657349,-7.44,1.76,-0.97,7.7
4.78321099281311,-2.07,-0.24,2.57,3.3
4.793216943740845,2.08,-2.86,5.48,6.52
4.80567193031311,5.54,-5.79,8.67,11.8
4.813326120376587,6.64,-5.9,8.66,12.4
4.826992988586426,4.48,-2.57,3.88,6.45
4.833000898361206,1.7,0.28,0.83,1.91
4.843779802322388,-0.99,1.62,-1.6,2.48
4.854214906692505,-2.5,1.92,-4.0,5.09
4.863145112991333,-2.86,2.08,-4.82,5.97
4.8741819858551025,-2.44,2.01,-4.04,5.12
4.883884906768799,-1.47,1.38,-2.23,3.0
4.894948959350586,-0.13,0.31,-0.26,0.42
4.905630826950073,0.96,-0.8,1.5,1.95
4.91334080696106,1.21,-1.6,3.37,3.92
4.926854848861694,0.51,-1.92,4.51,4.92
4.933016061782837,-0.39,-1.52,2.95,3.34
4.943758964538574,-1.29,-0.5,0.74,1.56
4.95461893081665,-1.87,0.43,-0.46,1.97
4.963390111923218,-1.63,0.65,-1.12,2.08
4.973676919937134,-0.67,0.48,-1.21,1.46
4.9836249351501465,0.41,0.35,-0.71,0.89
4.993658781051636,1.09,0.29,-0.07,1.13
5.00614595413208,1.18,0.19,0.24,1.21
5.013560056686401,0.76,0.18,0.26,0.82
5.0276689529418945,0.01,0.25,0.13,0.28
5.033336877822876,-0.73,0.27,-0.01,0.77
5.043980836868286,-1.12,0.22,0.0,1.14
5.054999113082886,-1.06,0.16,0.13,1.07
5.064278841018677,-0.71,0.11,0.24,0.75
5.073930978775024,-0.23,0.09,0.18,0.3
5.083971977233887,0.13,0.22,0.0,0.25
5.0940001010894775,0.19,0.41,-0.21,0.49
5.106484889984131,-0.11,0.56,-0.38,0.68
5.113749980926514,-0.59,0.68,-0.33,0.95
5.13286280632019,-1.08,0.79,-0.07,1.33
5.135044813156128,-1.5,0.83,0.34,1.74
5.144695043563843,-1.8,0.86,0.75,2.13
5.155286073684692,-1.9,1.0,0.9,2.32
5.164745092391968,-1.76,1.11,0.61,2.16
5.1743857860565186,-1.58,0.99,0.2,1.87
5.18415379524231,-1.43,1.0,0.0,1.74
5.194132089614868,-1.17,1.33,-0.19,1.78
5.207740068435669,-0.85,1.89,-0.44,2.11
5.2141029834747314,-0.69,2.41,-0.74,2.61
5.232395887374878,-0.85,2.84,-0.85,3.08
5.233829975128174,-1.32,3.11,-0.84,3.48
5.2438719272613525,-1.86,3.31,-0.86,3.89
5.255670785903931,-2.22,3.98,-1.13,4.69
5.264901876449585,-2.21,5.25,-1.01,5.78
5.275208950042725,-2.32,7.53,0.38,7.88
5.284149885177612,-3.8,8.89,-0.21,9.67
5.294327974319458,-5.74,8.48,-2.22,10.47
5.308233022689819,-7.06,8.97,-2.33,11.65
5.314582109451294,-7.71,9.77,-1.53,12.53
5.332935094833374,-8.22,10.07,-1.4,13.07
5.334151983261108,-8.85,10.44,-1.44,13.76
5.344228982925415,-9.15,10.54,-1.24,14.01
5.356061935424805,-7.79,10.05,-0.41,12.72
5.364300012588501,-4.64,10.17,2.15,11.38
5.374161958694458,-3.12,9.64,3.59,10.74
5.385173082351685,-5.47,6.27,2.24,8.61
5.39500093460083,-8.57,3.75,1.93,9.55
5.404590845108032,-10.28,3.59,2.75,11.23
5.414434909820557,-10.98,3.93,2.27,11.88
5.432442903518677,-10.35,4.38,0.27,11.24
5.434254884719849,-7.41,4.01,-1.19,8.5
5.44539999961853,-4.66,3.05,-1.64,5.8
5.454251050949097,-3.76,2.28,-2.08,4.86
5.464968919754028,-4.73,1.14,-1.95,5.24
5.474286794662476,-6.91,-0.4,-1.86,7.16
5.485914945602417,-9.29,-1.77,-2.17,9.7
5.494787931442261,-11.25,-2.61,-2.24,11.76
5.50505805015564,-12.53,-2.93,-1.71,12.98
5.514911890029907,-12.75,-3.09,-0.7,13.13
5.533624887466431,-12.06,-3.21,1.28,12.54
5.5357749462127686,-11.13,-3.42,3.09,12.04
5.5445520877838135,-9.8,-3.63,2.35,10.71
5.55505895614624,-8.12,-3.21,0.68,8.75
5.5655810832977295,-6.61,-2.42,-0.43,7.05
5.574985980987549,-5.25,-1.45,-0.92,5.52
5.5849928855896,-4.03,-0.37,-1.5,4.31
5.595041036605835,-3.06,0.73,-2.23,3.85
5.605194807052612,-2.29,1.68,-3.02,4.14
5.615134000778198,-1.82,2.33,-3.58,4.64
5.633933782577515,-1.59,2.55,-3.72,4.78
5.6360719203948975,-1.39,2.45,-3.3,4.33
5.644767999649048,-0.91,2.26,-2.3,3.35
5.655366897583008,-0.22,1.86,-1.3,2.27
5.66576886177063,0.36,1.45,-0.6,1.61
5.675389051437378,0.72,1.43,-0.08,1.6
5.685208082199097,0.94,1.83,0.4,2.09
5.6953370571136475,1.05,2.38,0.45,2.63
5.705345869064331,0.92,2.99,0.05,3.12
5.715361833572388,0.66,4.01,-0.1,4.06
5.73366904258728,0.47,5.37,-0.01,5.39
5.735844850540161,0.71,6.76,-0.36,6.8
5.745929956436157,2.01,8.29,-0.87,8.57
5.755357980728149,4.63,9.43,-1.39,10.59
5.766096830368042,8.07,9.58,-1.97,12.67
5.775680780410767,11.22,9.09,-1.77,14.54
5.785306930541992,13.38,7.77,-1.95,15.59
5.79557991027832,14.68,5.64,-3.4,16.08
5.805193901062012,15.69,3.28,-5.44,16.92
5.815685033798218,16.86,2.31,-5.4,17.85
5.833528995513916,19.05,2.3,-4.17,19.63
5.8350958824157715,22.08,1.87,-2.52,22.3
5.8454577922821045,24.76,0.18,-1.4,24.8
5.855915784835815,25.7,-2.05,-1.0,25.8
5.865686893463135,24.14,-3.48,-0.05,24.38
5.87528395652771,20.2,-5.02,0.93,20.83
5.88521409034729,15.32,-6.46,1.57,16.7
5.8968329429626465,11.16,-1.1,2.83,11.56
5.905772924423218,7.38,4.89,5.14,10.23
5.915374040603638,2.93,15.4,-6.85,17.1
5.9323890209198,-8.42,16.81,-28.35,34.01
5.935157060623169,-15.08,3.4,-21.5,26.48
5.945494890213013,-1.27,5.47,-0.33,5.62
5.956336975097656,8.33,6.5,7.43,12.91
5.965989828109741,9.0,-2.58,-1.16,9.43
5.975959062576294,7.61,-7.25,-4.04,11.26
5.985895872116089,7.03,-3.06,2.45,8.04
5.996088981628418,4.83,1.21,7.25,8.79
6.005967855453491,0.31,-0.09,6.21,6.21
6.015850782394409,-2.75,-2.19,2.49,4.3
6.034522771835327,-2.45,-0.35,0.93,2.64
6.036668062210083,-1.13,1.77,-1.55,2.61
6.045719861984253,-0.14,1.96,-6.09,6.39
6.055556058883667,1.71,3.01,-6.91,7.72
6.0656609535217285,3.63,3.26,-4.69,6.76
6.075639009475708,3.83,1.06,-2.38,4.63
6.086031913757324,2.43,-1.17,0.32,2.71
6.095731973648071,0.43,-1.88,3.05,3.6
6.10645604133606,-1.68,-1.66,4.51,5.09
6.116118907928467,-3.25,-1.36,3.97,5.3
6.1330718994140625,-3.58,-0.87,2.27,4.32
6.135627031326294,-2.53,-0.26,0.46,2.58
6.1458070278167725,-0.76,0.14,-0.93,1.2
6.156261920928955,0.89,0.31,-1.48,1.75
6.1669580936431885,1.82,0.34,-1.31,2.26
6.175797939300537,1.82,0.24,-0.88,2.03
6.186828851699829,1.09,0.21,-0.5,1.21
6.196431875228882,0.08,0.28,-0.17,0.33
6.206073045730591,-0.78,0.11,0.01,0.78
6.216675043106079,-1.23,-0.16,0.3,1.27
6.234993934631348,-1.23,-0.37,0.72,1.47
6.236953973770142,-0.83,-0.41,0.99,1.35
6.245971918106079,-0.24,-0.27,0.89,0.96
6.255955934524536,0.22,-0.1,0.41,0.47
6.266690015792847,0.28,0.07,-0.16,0.33
6.276598930358887,0.03,0.21,-0.51,0.55
6.287277936935425,-0.35,0.21,-0.58,0.7
6.296588897705078,-0.67,0.14,-0.36,0.77
6.306582927703857,-0.88,-0.01,0.08,0.88
6.316817045211792,-0.93,-0.1,0.47,1.04
6.336009979248047,-0.78,-0.09,0.65,1.01
6.338112115859985,-0.63,-0.04,0.61,0.87
6.346282958984375,-0.62,0.05,0.34,0.7
6.35683798789978,-0.68,0.25,0.04,0.72
6.366386890411377,-0.67,0.34,-0.23,0.78
6.378483057022095,-0.57,0.52,-0.27,0.81
6.386805772781372,-0.54,0.74,-0.21,0.93
6.396739959716797,-0.53,0.72,-0.25,0.92
6.406819105148315,-0.4,0.66,-0.36,0.85
6.416802883148193,-0.14,0.71,-0.44,0.84
6.4341819286346436,0.01,0.74,-0.36,0.82
6.436809778213501,-0.18,0.71,-0.11,0.74
6.446506977081299,-0.65,0.51,0.17,0.84
6.4574549198150635,-1.05,0.43,0.36,1.19
6.4671149253845215,-1.14,0.76,0.61,1.49
6.476439952850342,-1.25,1.53,0.97,2.2
6.4876720905303955,-1.86,1.62,0.94,2.63
6.496540784835815,-2.66,1.76,0.92,3.31
6.507312059402466,-2.92,2.43,0.82,3.88
6.5170578956604,-2.78,3.03,0.45,4.13
6.535207986831665,-2.67,3.51,-0.15,4.41
6.536531925201416,-2.79,4.23,-0.62,5.1
6.546715021133423,-3.11,5.25,-0.84,6.15
6.5571129322052,-3.44,7.0,-1.13,7.88
6.5678088665008545,-3.62,8.7,-1.27,9.5
6.579309940338135,-3.92,10.03,-0.9,10.8
6.587022066116333,-4.71,10.74,-1.15,11.78
6.597308874130249,-6.12,10.61,-1.96,12.4
6.607189893722534,-7.23,11.2,-1.54,13.41
6.6172308921813965,-7.12,11.97,-0.3,13.93
6.634001016616821,-6.48,12.3,0.94,13.93
6.637054920196533,-6.3,11.9,1.01,13.5
6.64683198928833,-7.24,10.66,-0.67,12.9
6.656975030899048,-9.49,8.98,-3.19,13.44
6.6670448780059814,-12.34,6.43,-5.46,14.94
6.677403926849365,-14.14,3.95,-5.78,15.77
6.688019037246704,-13.99,2.47,-3.62,14.66
6.697866916656494,-12.56,1.4,-1.76,12.75
6.70746111869812,-10.55,-0.42,-2.21,10.78
6.71738600730896,-7.33,-2.13,-3.46,8.38
6.735037088394165,-2.8,-2.24,-4.19,5.51
6.737165927886963,1.07,-1.77,-4.82,5.24
6.747184991836548,3.19,-1.89,-5.99,7.04
6.758150815963745,2.27,-1.95,-6.36,7.02
6.7672507762908936,-1.14,-2.53,-7.35,7.85
6.779413938522339,-4.96,-2.71,-8.29,10.03
6.787933111190796,-7.99,-2.15,-7.98,11.49
6.7974159717559814,-9.5,-2.15,-8.07,12.64
6.807577848434448,-10.37,-2.73,-8.39,13.61
6.817951917648315,-11.36,-2.9,-7.73,14.04
6.834853887557983,-12.35,-2.17,-5.91,13.86
6.837369918823242,-12.78,-1.6,-4.84,13.75
6.847398996353149,-12.1,-1.53,-5.14,13.23
6.85837197303772,-10.19,-1.58,-5.97,11.91
6.867873907089233,-7.24,-1.84,-7.94,10.9
6.8806397914886475,-3.92,-1.33,-10.57,11.35
6.887641906738281,-0.88,0.8,-12.11,12.16
6.897769927978516,1.52,3.73,-12.34,12.98
6.907657861709595,3.36,5.46,-12.21,13.79
6.91795802116394,4.61,5.09,-11.89,13.73
6.935293912887573,4.75,3.39,-10.81,12.28
6.937715768814087,3.68,1.88,-8.48,9.43
6.947622060775757,2.17,0.99,-5.84,6.3
6.958698034286499,1.05,0.57,-4.01,4.18
6.968705892562866,0.56,0.76,-2.98,3.12
6.9809489250183105,0.44,1.64,-2.57,3.08
6.987929105758667,0.47,2.96,-2.88,4.15
6.998224973678589,0.79,4.63,-3.77,6.02
7.0080039501190186,1.88,6.65,-4.79,8.4
7.018526792526245,3.91,8.79,-5.72,11.19
7.039090871810913,6.24,10.72,-6.43,13.97
7.04026198387146,8.07,11.76,-6.12,15.52
7.04855489730835,8.95,11.37,-4.6,15.18
7.057962894439697,9.15,10.25,-2.3,13.93
7.067920923233032,9.5,8.71,-0.2,12.89
7.080610036849976,10.54,6.67,0.98,12.51
7.087951898574829,12.46,4.38,1.19,13.26
7.098967790603638,15.43,2.1,1.06,15.6
7.108426809310913,18.99,-0.16,0.69,19.0
7.118519067764282,22.12,-2.24,0.5,22.23
7.136462926864624,23.87,-3.95,1.06,24.21
7.137923955917358,23.41,-4.51,3.39,24.08
7.148133993148804,20.43,-3.57,5.56,21.47
7.15795111656189,16.45,-2.17,4.79,17.27
7.167950868606567,12.47,-0.6,3.25,12.9
7.179853916168213,9.31,0.89,2.89,9.78
7.1891257762908936,6.17,5.1,8.28,11.51
7.199419975280762,-1.61,9.67,8.61,13.04
7.2084801197052,-19.47,-0.95,-10.48,22.13
7.218700885772705,-27.46,1.82,-20.01,34.02
7.237400770187378,-15.14,14.93,-3.5,21.54
7.239459991455078,-3.62,5.75,5.18,8.54
7.2483251094818115,1.63,-1.9,5.9,6.4
7.25821590423584,9.79,-0.87,7.82,12.55
7.268337965011597,17.49,-3.3,7.25,19.21
7.281620979309082,22.66,-5.94,2.56,23.56
7.288593053817749,22.53,-4.77,-1.56,23.08
7.2987658977508545,15.11,-0.74,0.24,15.13
7.309051990509033,7.27,0.81,1.25,7.42
7.318860769271851,1.24,2.19,-0.35,2.54
7.337045907974243,-3.82,4.03,-2.62,6.13
7.33856987953186,-8.58,4.5,-6.45,11.63
7.348546981811523,-11.58,3.03,-7.83,14.3
7.358532905578613,-10.02,2.3,-3.77,10.95
7.368495941162109,-5.74,1.57,0.74,5.99
7.3792078495025635,-1.49,-1.09,2.68,3.25
7.388680934906006,2.76,-4.16,2.86,5.75
7.399004936218262,6.82,-4.64,3.5,8.96
7.408865928649902,8.5,-2.04,4.53,9.84
7.419143915176392,6.8,-0.12,3.42,7.61
7.43840479850769,2.95,-0.03,0.23,2.95
7.44054102897644,-0.98,0.22,-2.1,2.32
7.44878888130188,-3.73,1.12,-2.68,4.72
7.458709955215454,-4.9,1.58,-2.43,5.69
7.4688239097595215,-4.45,0.94,-1.99,4.96
7.4788658618927,-2.55,0.04,-1.01,2.74
7.4896039962768555,-0.07,-0.4,0.29,0.49
7.499298810958862,1.96,-0.58,1.3,2.42
7.509260892868042,2.92,-0.61,1.72,3.44
7.519531965255737,2.63,-0.47,1.53,3.07
7.539019823074341,1.32,-0.27,0.88,1.6
7.541204929351807,-0.36,-0.12,-0.02,0.38
7.548998117446899,-1.64,0.11,-0.59,1.74
7.559921026229858,-2.1,0.3,-0.68,2.22
7.568958044052124,-1.76,0.21,-0.46,1.83
7.579645872116089,-0.98,-0.01,-0.02,0.98
7.5891969203948975,-0.18,-0.18,0.48,0.54
7.599488973617554,0.35,-0.28,0.82,0.93
7.609215021133423,0.42,-0.27,0.81,0.95
7.619727849960327,0.1,-0.17,0.6,0.63
7.638014078140259,-0.42,-0.05,0.14,0.44
7.640197038650513,-0.85,0.1,-0.16,0.87
7.6491711139678955,-1.03,0.23,-0.26,1.08
7.660199880599976,-0.93,0.17,-0.18,0.96
7.669207811355591,-0.6,0.04,-0.02,0.6
7.67994499206543,-0.23,0.06,0.11,0.26
7.689554929733276,-0.04,0.15,0.22,0.26
7.700371980667114,-0.15,0.15,0.18,0.27
7.70947003364563,-0.47,0.17,0.16,0.52
7.719716787338257,-0.83,0.2,0.2,0.87
7.738829851150513,-1.04,0.22,0.24,1.08
7.740990877151489,-1.08,0.3,0.3,1.16
7.749466896057129,-0.98,0.33,0.27,1.06
7.760333776473999,-0.76,0.51,0.31,0.96
7.770522832870483,-0.54,0.55,0.27,0.81
7.780320882797241,-0.5,0.39,0.07,0.63
7.789891004562378,-0.55,0.61,-0.02,0.82
7.799945116043091,-0.36,2.13,0.22,2.17
7.809947967529297,-0.61,1.76,-0.36,1.89
7.820403814315796,-1.48,0.26,-0.26,1.52
7.8402419090271,-1.74,0.59,0.83,2.01
7.8419349193573,-1.38,1.36,1.47,2.43
7.849581956863403,-0.82,1.62,0.59,1.9
7.860675096511841,-0.64,2.11,-0.73,2.32
7.87018084526062,-0.77,2.78,-1.64,3.31
7.880339860916138,-0.98,3.26,-1.93,3.91
7.8898561000823975,-1.14,3.87,-1.9,4.45
7.900248765945435,-1.17,4.34,-1.72,4.81
7.909897089004517,-1.36,5.67,-0.6,5.86
7.9201788902282715,-2.18,7.06,-0.32,7.39
7.938691854476929,-3.71,6.62,-1.9,7.82
7.940869092941284,-5.24,7.07,-2.45,9.13
7.950261831283569,-6.0,8.16,-2.19,10.36
7.960385084152222,-6.27,8.75,-2.36,11.02
7.9699060916900635,-6.59,9.41,-2.26,11.7
7.98002290725708,-6.98,9.85,-2.19,12.26
7.990750074386597,-7.32,9.29,-2.55,12.09
8.000278949737549,-7.33,8.47,-2.48,11.47
8.01025390625,-7.3,7.79,-1.14,10.73
8.020596981048584,-7.65,7.85,1.6,11.07
8.038777112960815,-7.76,8.65,4.51,12.46
8.04026484489441,-7.94,6.87,5.19,11.71
8.050026893615723,-8.81,4.1,4.06,10.53
8.060116052627563,-9.55,2.49,2.7,10.23
8.070065975189209,-9.74,1.52,0.78,9.88
8.080195903778076,-9.23,2.16,-0.57,9.49
8.090131044387817,-7.77,3.22,-1.13,8.48
8.10152792930603,-6.36,2.92,-2.0,7.27
8.11030888557434,-5.95,1.05,-3.05,6.76
8.120560884475708,-5.95,-0.43,-2.94,6.65
8.13892388343811,-5.38,-0.97,-2.35,5.95
8.140941858291626,-4.83,-1.26,-1.57,5.23
8.150094985961914,-4.76,-1.78,-1.04,5.18
8.161173105239868,-5.18,-2.85,-1.03,6.0
8.170212030410767,-6.12,-4.18,-1.68,7.59
8.180965900421143,-7.13,-4.84,-1.84,8.81
8.190953016281128,-7.91,-4.76,-1.24,9.31
8.202025890350342,-8.62,-4.67,-0.54,9.81
8.210840940475464,-9.36,-4.59,-0.46,10.43
8.220727920532227,-9.93,-4.07,-0.66,10.75
8.239046812057495,-9.91,-3.0,-0.74,10.38
8.241001844406128,-9.15,-1.81,-0.9,9.37
8.250332117080688,-8.08,-0.82,-1.14,8.2
8.261382818222046,-6.83,-0.19,-1.73,7.04
8.270982027053833,-5.37,0.28,-2.92,6.11
8.281253099441528,-3.67,1.21,-4.05,5.59
8.291201829910278,-1.78,2.74,-4.4,5.48
8.302485942840576,0.23,4.06,-4.69,6.2
8.310939073562622,1.97,4.74,-5.18,7.29
8.320969820022583,2.92,5.06,-5.2,7.82
8.340187788009644,2.85,5.17,-4.63,7.5
8.342252016067505,2.06,5.17,-3.72,6.69
8.351131916046143,1.06,5.27,-2.79,6.05
8.361681938171387,0.25,5.68,-2.01,6.03
8.370682954788208,-0.11,6.64,-1.45,6.79
8.381361961364746,0.09,8.05,-1.33,8.15
8.391344785690308,0.97,9.45,-2.3,9.77
8.402904987335205,2.73,10.83,-4.24,11.94
8.411415815353394,5.43,11.9,-6.43,14.57
8.42114806175232,8.78,11.79,-7.67,16.58
8.439734935760498,11.87,10.5,-7.28,17.43
8.441395998001099,13.85,8.41,-6.18,17.34
8.450784921646118,14.61,6.12,-4.61,16.49
8.460922956466675,14.37,3.6,-3.8,15.29
8.470945119857788,13.84,0.91,-4.24,14.5
8.480956792831421,14.08,-1.8,-5.14,15.09
8.491784811019897,16.04,-4.4,-5.47,17.5
8.503456830978394,19.54,-5.77,-4.04,20.77
8.511334896087646,22.63,-4.64,-1.24,23.13
8.521486043930054,22.61,-2.01,0.36,22.7
8.533049821853638,18.78,-0.6,-1.17,18.82
8.541253805160522,13.68,0.14,-3.31,14.07
8.552149057388306,9.7,1.36,-3.55,10.41
8.562174081802368,7.24,2.25,-2.47,7.97
8.571085929870605,5.67,2.82,0.57,6.35
8.581928014755249,1.96,9.24,9.9,13.68
8.591619968414307,-13.49,5.09,-0.22,14.42
8.603248834609985,-31.15,-5.15,-20.49,37.63
8.61161994934082,-22.0,9.25,-10.86,26.22
8.621597051620483,-4.08,17.15,10.41,20.47
8.6334068775177,5.7,6.94,12.81,15.64
8.64106297492981,14.06,-4.76,3.81,15.32
8.652407884597778,24.14,-12.33,-0.09,27.1
8.662186861038208,28.87,-7.86,0.17,29.92
8.671483993530273,21.26,-0.91,1.9,21.36
8.68142294883728,7.88,-0.65,-0.76,7.94
8.691401958465576,-2.99,0.72,-2.24,3.8
8.70414400100708,-7.42,4.32,1.28,8.68
8.711872816085815,-11.7,4.09,-1.06,12.43
8.721935987472534,-14.14,1.59,-7.04,15.87
8.733433961868286,-8.79,3.44,-3.88,10.2
8.741410970687866,-0.9,2.78,-0.44,2.95
8.752856016159058,5.29,-1.19,-2.15,5.83
8.762676000595093,9.63,-2.54,-2.23,10.2
8.771620035171509,10.8,-0.7,1.17,10.88
8.781568765640259,7.58,0.04,3.16,8.21
8.792465925216675,2.11,-0.91,1.92,2.99
8.804778814315796,-2.89,-0.7,0.73,3.06
8.81197476387024,-6.46,0.3,-0.12,6.46
8.822369813919067,-7.6,0.7,-0.81,7.67
8.833842992782593,-5.27,0.49,-0.31,5.3
8.8419029712677,-0.92,-0.24,0.59,1.11
8.853240966796875,2.93,-0.84,0.72,3.13
8.862468004226685,4.86,-0.54,0.36,4.9
8.87194299697876,4.29,0.13,-0.44,4.31
8.8819899559021,1.79,0.51,-1.37,2.31
8.893407106399536,-1.09,0.5,-1.48,1.9
8.904748916625977,-3.01,0.18,-0.66,3.08
8.912588834762573,-3.33,-0.33,0.53,3.38
8.922205924987793,-2.23,-0.68,1.49,2.76
8.933923959732056,-0.47,-0.74,1.63,1.85
8.942230939865112,0.98,-0.52,1.02,1.5
8.953645944595337,1.54,-0.04,0.15,1.54
8.963080883026123,1.24,0.36,-0.57,1.41
8.972096920013428,0.48,0.45,-0.96,1.16
8.982025861740112,-0.32,0.47,-0.96,1.11
8.992929935455322,-0.73,0.37,-0.81,1.15
9.006170988082886,-0.71,0.28,-0.59,0.96
9.012578964233398,-0.46,0.26,-0.28,0.59
9.022699117660522,-0.21,0.16,0.07,0.27
9.033931016921997,-0.15,0.04,0.37,0.4
9.042969942092896,-0.3,0.01,0.57,0.64
9.05332899093628,-0.6,-0.02,0.57,0.82
9.06324291229248,-0.86,0.01,0.39,0.94
9.072415113449097,-0.93,0.13,0.15,0.95
9.08303689956665,-0.9,0.24,-0.04,0.93
9.092611074447632,-0.88,0.28,-0.11,0.93
9.1042320728302,-0.94,0.27,0.02,0.97
9.11268401145935,-1.01,0.2,0.25,1.05
9.122750997543335,-1.03,0.2,0.48,1.15
9.134675979614258,-1.01,0.34,0.55,1.19
9.143313884735107,-0.96,0.66,0.54,1.28
9.152405023574829,-1.0,0.45,0.43,1.17
9.16349482536316,-1.2,0.1,0.32,1.24
9.172376871109009,-1.28,0.5,0.45,1.44
9.183511018753052,-1.02,2.45,1.19,2.9
9.19329285621643,-1.51,1.48,0.54,2.18
9.205765962600708,-2.82,0.16,1.11,3.03
9.212834119796753,-2.92,1.32,2.32,3.95
9.223053932189941,-2.09,1.65,2.1,3.39
9.234827995300293,-1.16,1.27,0.15,1.72
9.242808103561401,-0.58,2.02,-1.89,2.82
9.253118991851807,-0.1,3.16,-3.06,4.39
9.262738943099976,0.23,3.79,-3.21,4.97
9.272738933563232,0.09,4.33,-2.88,5.2
9.282644033432007,-0.5,5.16,-2.64,5.81
9.292762041091919,-1.06,6.28,-1.74,6.6
9.304677963256836,-1.82,8.53,-0.38,8.73
9.313612937927246,-3.3,8.6,-1.38,9.31
9.323381900787354,-5.26,8.48,-2.58,10.3
9.33436393737793,-6.59,9.35,-2.52,11.71
9.344119787216187,-7.02,9.72,-2.57,12.26
9.353474855422974,-7.28,9.46,-3.14,12.34
9.363462924957275,-7.65,9.35,-3.48,12.57
9.373411893844604,-7.59,9.02,-3.52,12.3
9.384373903274536,-7.5,7.74,-3.34,11.28
9.393436908721924,-8.4,6.22,-2.95,10.86
9.403475046157837,-9.47,6.68,-0.86,11.62
9.41329288482666,-9.76,8.16,0.34,12.72
9.42339301109314,-10.39,7.01,0.06,12.53
9.436316967010498,-10.54,3.91,0.49,11.25
9.445244073867798,-10.27,1.78,-0.55,10.43
9.453032970428467,-9.08,1.15,-1.88,9.34
9.464184999465942,-5.47,2.18,-1.59,6.09
9.473109006881714,-0.8,3.65,-0.91,3.84
9.483068943023682,2.28,3.69,-2.37,4.94
9.493258953094482,2.15,1.86,-4.56,5.37
9.503889799118042,-0.65,-0.4,-5.76,5.81
9.513736009597778,-3.75,-1.57,-6.21,7.42
9.524333000183105,-6.63,-1.83,-5.73,8.95
9.535594940185547,-8.95,-2.43,-5.23,10.64
9.54487681388855,-10.56,-3.57,-5.14,12.27
9.553327798843384,-11.47,-4.81,-4.96,13.39
9.563431978225708,-11.62,-5.59,-3.78,13.43
9.573348999023438,-11.27,-5.58,-0.69,12.59
9.584120035171509,-10.51,-5.05,1.08,11.71
9.594430923461914,-9.49,-4.3,-0.2,10.42
9.603771924972534,-8.76,-3.12,-1.59,9.43
9.613919019699097,-8.58,-1.73,-2.07,8.99
9.624023914337158,-8.61,-0.67,-2.43,8.97
9.63595986366272,-8.19,-0.13,-3.32,8.83
9.645464897155762,-6.89,0.21,-4.47,8.21
9.655541896820068,-4.83,0.99,-5.54,7.41
9.664613008499146,-2.47,2.36,-6.15,7.03
9.674031019210815,-0.25,4.0,-6.33,7.49
9.68440294265747,1.87,5.26,-6.31,8.42
9.694257974624634,3.71,5.6,-6.03,9.02
9.703999996185303,4.6,5.26,-5.3,8.77
9.713972806930542,4.11,4.8,-3.99,7.47
9.72459101676941,2.86,4.6,-2.5,5.96
9.736717939376831,1.83,4.71,-1.2,5.19
9.745900869369507,1.43,4.9,-0.47,5.12
9.753700017929077,1.6,5.5,-0.15,5.72
9.764815092086792,2.39,6.87,0.03,7.27
9.77373194694519,3.9,8.57,-0.33,9.42
9.784868955612183,5.83,9.76,-1.56,11.47
9.79393982887268,7.51,10.24,-2.66,12.97
9.804343938827515,8.26,9.85,-2.53,13.1
9.814442873001099,8.02,8.67,-1.13,11.86
9.824465036392212,7.58,7.39,0.44,10.59
9.835889101028442,7.49,5.96,1.51,9.69
9.846195936203003,8.33,4.5,2.34,9.75
9.854931116104126,10.2,3.06,2.85,11.02
9.864557027816772,12.73,1.86,3.35,13.29
9.873979806900024,15.45,0.66,3.56,15.86
9.885402917861938,18.02,-0.67,3.31,18.33
9.894624948501587,19.87,-1.66,3.4,20.22
9.90454888343811,20.48,-1.98,4.4,21.04
9.914391994476318,19.61,-1.86,5.28,20.39
9.92524790763855,17.78,-1.41,4.99,18.52
9.935963869094849,15.68,-0.82,3.85,16.16
9.946431875228882,13.44,-0.28,2.57,13.68
9.954647779464722,11.46,0.35,1.54,11.56
9.964824914932251,9.83,1.09,1.11,9.95
9.97416090965271,8.06,1.48,1.15,8.27
9.985536813735962,4.55,4.16,4.83,7.83
9.994738817214966,-11.27,7.02,0.06,13.27
10.005031824111938,-34.34,-3.24,-25.4,42.83
10.015240907669067,-30.53,12.6,-17.22,37.24
10.025192022323608,-10.48,12.22,2.03,16.22
10.036328077316284,0.72,-1.21,5.06,5.25
10.046894788742065,8.42,-3.96,7.0,11.64
10.054406881332397,18.3,-4.25,7.36,20.17
10.065639972686768,24.22,-4.03,5.9,25.25
10.074561834335327,24.59,-0.65,6.17,25.36
10.08445692062378,19.35,2.03,5.3,20.16
10.09493899345398,11.24,-0.32,1.06,11.29
10.104875802993774,5.15,-1.55,-4.11,6.76
10.115009069442749,0.16,1.62,-3.55,3.9
10.125137090682983,-7.35,4.97,-3.79,9.64
10.136760950088501,-15.42,3.17,-7.87,17.6
10.147395849227905,-14.79,2.15,-4.1,15.49
10.154608964920044,-7.97,1.67,2.99,8.67
10.164719820022583,-1.6,-2.38,5.52,6.22
10.174628973007202,4.5,-6.27,5.1,9.25
10.185391902923584,9.85,-4.39,4.27,11.59
10.19518780708313,10.87,-0.37,1.7,11.0
10.205071926116943,6.79,1.19,-2.77,7.42
10.215260982513428,1.02,1.87,-5.34,5.74
10.226826906204224,-3.57,2.28,-4.45,6.14
10.237082958221436,-6.13,0.98,-2.3,6.62
10.247713804244995,-5.8,-0.75,0.33,5.85
10.254826784133911,-3.17,-1.45,2.73,4.42
10.2655508518219,-0.31,-1.43,3.81,4.08
10.274847984313965,1.58,-1.24,3.25,3.82
10.285888910293579,2.26,-0.85,1.61,2.9
10.295387983322144,1.87,-0.24,-0.17,1.89
10.305230855941772,0.79,0.48,-1.32,1.61
10.315491914749146,-0.44,0.94,-1.64,1.94
10.327321767807007,-1.32,0.82,-1.38,2.07
10.337646961212158,-1.69,0.32,-0.65,1.83
10.34810185432434,-1.57,-0.17,0.39,1.62
10.355011940002441,-1.14,-0.47,1.28,1.77
10.36514687538147,-1.05,-0.66,0.37,1.29
10.376582860946655,-4.81,0.33,-2.05,5.23
10.386200904846191,1.61,1.51,4.16,4.7
10.396009922027588,4.33,-2.49,0.49,5.01
10.405463933944702,3.14,0.24,3.1,4.41
10.415780782699585,0.73,-0.71,-0.31,1.06
10.427359819412231,-1.98,0.65,-0.65,2.18
10.437177896499634,-3.07,1.18,-0.71,3.36
10.44822907447815,-2.66,0.25,-1.09,2.88
10.455250978469849,-1.58,-0.03,-0.5,1.65
10.46592402458191,-0.31,0.11,0.42,0.53
10.475241899490356,0.81,0.0,0.95,1.24
10.48587679862976,1.3,-0.25,0.76,1.52
10.495389938354492,0.95,-0.11,0.36,1.02
10.506288766860962,-0.01,0.36,-0.01,0.36
10.51559591293335,-1.11,0.74,-0.21,1.35
10.527493000030518,-1.84,0.79,-0.23,2.01
10.537952899932861,-2.03,0.78,-0.02,2.17
10.548930883407593,-1.74,1.06,0.41,2.07
10.555443048477173,-1.15,2.38,0.96,2.81
10.565673112869263,-0.97,2.69,0.61,2.92
10.576526880264282,-1.83,0.31,0.04,1.85
10.586890935897827,-1.79,0.19,0.74,1.94
10.595923900604248,-0.97,0.96,1.36,1.92
10.605950117111206,-0.15,0.91,0.25,0.95
10.616080045700073,0.33,1.19,-1.48,1.92
10.628093004226685,0.51,2.33,-2.47,3.43
10.636905908584595,0.4,3.35,-2.76,4.35
10.649161100387573,-0.06,3.65,-2.93,4.68
10.655658960342407,-0.72,3.61,-2.91,4.69
10.666348934173584,-1.12,3.83,-2.05,4.48
10.676922082901001,-1.5,5.61,0.1,5.8
10.68587589263916,-2.34,6.41,0.43,6.83
10.69629192352295,-3.45,5.35,-1.65,6.57
10.706141948699951,-4.23,5.24,-2.91,7.33
10.716273069381714,-4.54,6.19,-2.99,8.23
10.728532075881958,-4.67,7.17,-2.99,9.06
10.737567901611328,-4.99,7.73,-3.06,9.69
10.74964189529419,-5.39,8.38,-2.58,10.29
10.755873918533325,-5.03,8.76,-1.91,10.28
10.76609992980957,-4.92,8.56,-1.33,9.96
10.77728796005249,-6.13,8.62,-0.92,10.61
10.787019968032837,-7.76,10.4,0.56,12.98
10.796515941619873,-8.6,10.24,2.18,13.54
10.806946992874146,-9.0,6.45,2.85,11.43
10.816447973251343,-8.88,3.79,4.05,10.47
10.82891583442688,-8.74,3.14,4.71,10.41
10.837302923202515,-8.58,3.21,4.4,10.16
10.84981083869934,-7.41,3.22,3.1,8.65
10.856045961380005,-5.36,3.22,1.84,6.51
10.866289854049683,-3.73,3.31,1.04,5.09
10.877708911895752,-3.89,3.02,-0.34,4.93
10.886348962783813,-5.89,2.32,-1.21,6.44
10.89677095413208,-8.69,1.41,-1.39,8.91
10.906805992126465,-10.91,0.3,-1.53,11.02
10.916745901107788,-12.03,-0.62,-1.22,12.1
10.929183959960938,-12.34,-1.48,-0.54,12.44
10.938607931137085,-12.02,-2.3,0.34,12.24
10.95059609413147,-11.29,-2.92,2.19,11.86
10.956347942352295,-10.73,-3.69,5.51,12.61
10.966925859451294,-9.84,-4.57,6.43,12.61
10.977854013442993,-8.38,-4.73,4.51,10.62
10.987080812454224,-6.99,-3.86,2.8,8.46
10.997018098831177,-6.21,-2.4,2.41,7.08
11.006829023361206,-6.37,-0.89,2.62,6.94
11.01730489730835,-7.0,0.14,2.72,7.51
11.030236005783081,-7.27,0.54,2.28,7.63
11.038953065872192,-6.86,0.86,2.06,7.21
11.050805807113647,-6.03,1.4,2.47,6.66
11.056562900543213,-4.98,1.9,2.94,6.08
11.067670106887817,-3.79,2.44,3.46,5.68
11.077524900436401,-2.32,3.02,3.91,5.45
11.087619066238403,-0.89,3.51,3.96,5.36
11.097123861312866,0.09,4.02,3.59,5.39
11.107064008712769,0.52,4.67,3.19,5.67
11.117151021957397,0.4,5.52,3.05,6.31
11.130810022354126,-0.12,6.39,3.07,7.09
11.139583826065063,-0.72,7.34,3.44,8.13
11.151230096817017,-1.1,8.39,3.9,9.31
11.15679383277893,-1.2,9.29,3.7,10.07
11.167670011520386,-0.84,10.34,3.26,10.87
11.178970098495483,0.22,11.46,3.22,11.9
11.187434911727905,2.42,11.75,3.64,12.53
11.19765591621399,5.92,10.87,4.08,13.03
11.20685887336731,9.65,9.58,3.54,14.05
11.217840909957886,12.3,7.93,1.96,14.76
11.227290868759155,14.74,5.8,-0.43,15.84
11.238095045089722,18.16,4.11,-2.08,18.73
11.25174593925476,22.45,2.82,-2.43,22.75
11.25749397277832,26.82,1.22,-1.85,26.91
11.26784896850586,30.28,-0.79,-0.37,30.29
11.2792489528656,31.07,-3.58,2.52,31.37
11.287645101547241,27.26,-6.43,7.92,29.1
11.297693967819214,22.65,-8.35,6.97,25.12
11.307111024856567,20.58,-6.6,2.06,21.71
11.31734299659729,19.64,-2.2,-0.04,19.76
11.327217817306519,18.3,0.46,-0.14,18.3
11.338435888290405,14.64,3.58,2.36,15.25
11.351708889007568,0.55,12.7,-1.33,12.78
11.35776400566101,-33.98,15.06,-50.99,63.09
11.368074893951416,-40.8,7.06,-29.8,51.01
11.377890825271606,-17.25,3.72,1.78,17.73
11.388216972351074,3.44,-0.32,43.95,44.08
11.397610902786255,4.56,-3.36,30.13,30.65
11.407756090164185,-0.69,-5.28,2.89,6.05
11.417979955673218,7.58,-6.76,4.04,10.93
11.42750597000122,20.86,-6.54,-4.39,22.29
11.439486980438232,26.87,-5.43,-17.26,32.39
11.452422857284546,22.48,3.89,-8.64,24.39
11.45746397972107,9.61,8.51,-2.66,13.1
11.467611074447632,-2.23,8.39,-2.1,8.93
11.47752594947815,-6.34,5.35,-1.47,8.42
11.487648963928223,-10.13,-1.79,-6.27,12.04
11.497561931610107,-13.8,-6.15,-6.43,16.41
11.50757384300232,-10.11,-2.82,-0.06,10.49
11.518503904342651,-2.77,1.12,6.48,7.13
11.527869939804077,2.16,0.86,11.9,12.12
11.540096998214722,3.92,-4.35,7.58,9.57
11.552860975265503,5.91,-6.98,-0.45,9.15
11.557683944702148,5.77,-1.44,-1.96,6.26
11.567795991897583,2.43,4.03,-0.34,4.71
11.577762842178345,-1.11,3.59,-1.42,4.01
11.587884902954102,-3.07,0.06,-2.84,4.18
11.597755908966064,-3.61,-1.41,-1.46,4.14
11.60850977897644,-2.6,-0.34,1.55,3.04
11.618923902511597,-0.55,-0.03,2.79,2.84
11.628230810165405,1.44,-0.78,1.57,2.26
11.639758825302124,2.49,-0.49,-0.33,2.55
11.652744054794312,2.28,0.68,-1.49,2.8
11.65824294090271,1.12,1.12,-1.93,2.49
11.668510913848877,-0.25,0.55,-1.65,1.75
11.677994966506958,-1.14,-0.06,-0.49,1.24
11.688153982162476,-1.23,-0.34,0.79,1.5
11.698490858078003,-0.69,-0.44,1.4,1.62
11.708709955215454,0.14,-0.35,1.11,1.17
11.71852993965149,0.72,-0.07,0.29,0.77
11.728295087814331,0.77,0.25,-0.45,0.92
11.740147829055786,0.32,0.43,-0.71,0.88
11.753761053085327,-0.31,0.38,-0.54,0.72
11.758116006851196,-0.71,0.18,-0.18,0.75
11.768257856369019,-0.69,0.03,0.04,0.69
11.778225898742676,-0.32,0.04,0.11,0.34
11.789232015609741,0.01,0.08,0.13,0.15
11.798646926879883,0.01,0.01,0.19,0.19
11.80846095085144,-0.24,-0.01,0.34,0.41
11.818672895431519,-0.57,0.04,0.5,0.75
11.828451871871948,-0.87,0.04,0.51,1.0
11.840093851089478,-1.01,0.12,0.38,1.08
11.853996992111206,-0.98,0.29,0.21,1.04
11.858393907546997,-0.92,0.36,0.12,0.99
11.868366956710815,-1.04,0.36,0.26,1.13
11.878412008285522,-1.28,0.26,0.56,1.42
11.888524770736694,-1.48,0.17,0.9,1.74
11.898520946502686,-1.57,0.2,1.14,1.95
11.90956711769104,-1.49,0.27,1.17,1.91
11.919008016586304,-1.33,0.55,1.12,1.82
11.92854380607605,-1.29,1.0,0.99,1.9
11.940908908843994,-1.41,1.5,0.78,2.2
11.954447984695435,-1.57,2.87,0.75,3.35
11.958578824996948,-1.91,3.57,0.44,4.07
11.96915602684021,-3.11,1.89,0.25,3.64
11.979231119155884,-3.21,2.04,0.76,3.87
11.989438772201538,-2.13,3.67,0.85,4.32
11.999571084976196,-1.12,4.72,-0.02,4.85
12.008925914764404,-1.05,6.33,-1.1,6.51
12.019173860549927,-1.98,6.89,-2.6,7.62
12.02893590927124,-2.98,7.02,-3.4,8.34
12.040761947631836,-3.37,7.6,-2.92,8.81
12.054847955703735,-3.38,8.19,-2.11,9.1
12.0587899684906,-3.47,8.45,-1.98,9.34
12.068753957748413,-4.05,8.0,-2.88,9.41
12.079798936843872,-4.98,7.46,-3.12,9.49
12.088918924331665,-5.67,7.53,-1.6,9.56
12.0988929271698,-6.66,7.11,0.64,9.76
12.109848976135254,-7.41,6.06,2.34,9.85
12.118956804275513,-7.17,5.16,4.11,9.74
12.129645109176636,-7.01,3.6,4.79,9.22
12.138895988464355,-8.02,1.05,3.76,8.91
12.155053853988647,-8.93,-0.57,2.34,9.24
12.15953278541565,-8.33,0.2,2.59,8.72
12.169089078903198,-6.67,1.48,2.5,7.27
12.17911696434021,-5.32,1.43,0.38,5.52
12.189171075820923,-5.79,0.44,-2.18,6.2
12.200395822525024,-7.44,-0.07,-3.24,8.11
12.209175825119019,-8.91,0.24,-1.86,9.1
12.219710111618042,-9.65,-0.03,-0.46,9.66
12.229305028915405,-9.59,-1.1,0.38,9.66
12.241185903549194,-9.15,-2.47,0.83,9.51
12.255526781082153,-8.79,-3.59,1.27,9.57
12.259239912033081,-8.67,-3.79,1.94,9.65
12.26938796043396,-8.85,-3.24,2.47,9.74
12.280380010604858,-9.49,-2.73,1.87,10.05
12.290127992630005,-10.3,-2.18,0.4,10.53
12.299201965332031,-10.7,-1.46,-1.43,10.89
12.309913873672485,-10.18,-0.94,-3.52,10.81
12.31985592842102,-8.57,-0.6,-5.6,10.25
12.329519033432007,-5.9,-0.16,-7.29,9.37
12.341795921325684,-2.66,0.59,-8.43,8.85
12.3559889793396,0.67,1.85,-8.78,8.99
12.359425783157349,3.5,3.36,-8.55,9.83
12.369580030441284,5.09,4.17,-8.52,10.76
12.379525899887085,4.86,3.87,-8.4,10.44
12.390389919281006,3.14,3.18,-7.44,8.67
12.401710987091064,1.13,2.62,-5.69,6.36
12.410114049911499,-0.22,2.17,-3.79,4.37
12.42083477973938,-0.84,1.74,-2.42,3.09
12.42983078956604,-0.89,1.72,-1.63,2.53
12.442181825637817,-0.48,2.29,-1.47,2.76
12.456418991088867,0.29,3.1,-1.99,3.69
12.459718942642212,1.3,3.98,-2.84,5.05
12.469724893569946,2.32,4.81,-3.85,6.58
12.4806489944458,3.24,5.48,-5.0,8.09
12.489836931228638,4.21,5.97,-6.07,9.49
12.500754117965698,5.11,5.82,-7.92,11.07
12.511722803115845,5.48,5.08,-9.13,11.79
12.52020812034607,5.16,4.59,-8.37,10.85
12.530300855636597,4.12,3.84,-8.02,9.8
12.541826009750366,3.02,3.06,-8.32,9.36
12.556778907775879,2.65,2.38,-8.86,9.54
12.559922933578491,3.36,2.03,-9.17,9.97
12.570956945419312,4.86,1.86,-9.21,10.57
12.580016851425171,6.86,1.44,-9.62,11.9
12.591174840927124,9.29,0.69,-9.66,13.41
12.602860927581787,12.03,-0.04,-8.53,14.74
12.610455989837646,14.23,-0.12,-6.53,15.65
12.620743036270142,14.54,-0.72,-5.34,15.5
12.630470991134644,13.22,-2.02,-4.9,14.24
12.642246007919312,11.56,-2.79,-4.08,12.57
12.657303094863892,10.08,-2.65,-3.43,10.97
12.660162925720215,8.77,-2.33,-3.38,9.68
12.67014193534851,8.16,-1.69,-3.31,8.96
12.680063962936401,7.45,2.49,-0.7,7.88
12.690249919891357,0.54,8.63,2.83,9.09
12.701564073562622,-14.79,3.55,-3.05,15.51
12.710728883743286,-26.46,-1.57,-8.77,27.91
12.720124959945679,-18.2,6.88,-2.76,19.65
12.73092794418335,-5.34,9.48,7.14,13.01
12.742387056350708,4.77,1.2,12.28,13.22
12.757637977600098,12.84,-7.38,11.1,18.5
12.760742902755737,19.79,-9.67,2.83,22.2
12.770503997802734,16.56,-6.81,-10.49,20.75
12.781430959701538,6.26,3.44,-11.22,13.3
12.790389776229858,-3.16,9.19,-4.4,10.66
12.803652048110962,-8.4,3.93,-2.65,9.64
12.81068205833435,-10.44,-2.22,-0.09,10.67
12.820868968963623,-7.88,-1.95,3.13,8.7
12.830672025680542,-2.79,1.42,5.47,6.3
12.84144902229309,2.42,-0.36,3.57,4.32
12.858092069625854,8.04,-2.34,-1.0,8.43
12.860440015792847,10.01,-0.18,-4.3,10.89
12.870561838150024,7.43,2.52,-4.24,8.91
12.880511045455933,2.05,2.06,-3.12,4.26
12.890787839889526,-2.36,0.43,-0.99,2.59
12.904322862625122,-4.3,-0.47,1.35,4.53
12.910804033279419,-4.07,-0.7,2.23,4.69
12.921118974685669,-1.8,-0.2,1.93,2.64
12.930922985076904,1.05,-0.15,0.17,1.07
12.94282603263855,2.92,0.07,-1.55,3.3
12.95833706855774,3.17,0.64,-2.01,3.8
12.960777997970581,2.15,0.79,-1.44,2.7
12.970747947692871,0.66,0.27,-0.58,0.91
12.981883764266968,-0.51,-0.17,0.24,0.58
12.990987062454224,-1.0,-0.2,0.75,1.26
13.00392198562622,-0.88,-0.2,0.66,1.11
13.011094808578491,-0.37,-0.15,0.23,0.46
13.021267890930176,0.21,0.05,-0.12,0.24
13.031157970428467,0.52,0.13,-0.3,0.61
13.042781114578247,0.47,0.07,-0.21,0.51
13.050924062728882,0.25,0.06,0.07,0.26
13.061513900756836,-0.06,0.04,0.32,0.32
13.070986986160278,-0.27,-0.02,0.37,0.45
13.08102297782898,-0.25,0.06,0.23,0.34
13.091202974319458,-0.07,0.13,-0.07,0.16
13.104046106338501,0.13,0.21,-0.39,0.46
13.111430883407593,0.26,0.31,-0.57,0.69
13.121550798416138,0.28,0.36,-0.56,0.72
13.13148283958435,0.22,0.32,-0.55,0.67
13.143224000930786,0.1,0.27,-0.41,0.5
13.151124000549316,-0.1,0.06,-0.17,0.2
13.161823034286499,-0.39,-0.12,0.21,0.45
13.17126202583313,-0.7,-0.17,0.53,0.89
13.182130098342896,-0.88,-0.17,0.63,1.09
13.191399812698364,-0.77,-0.12,0.53,0.94
13.203818082809448,-0.45,-0.06,0.27,0.52
13.211532831192017,-0.11,-0.03,0.0,0.11
13.221873044967651,0.1,0.11,-0.18,0.23
13.231508016586304,0.16,0.18,-0.37,0.44
13.243493795394897,0.11,0.29,-0.46,0.55
13.251435995101929,-0.05,0.39,-0.34,0.51
13.261895895004272,-0.34,0.15,-0.22,0.43
13.271901845932007,-0.72,-0.11,0.13,0.73
13.282543897628784,-1.12,-0.16,0.59,1.27
13.291516065597534,-1.51,-0.13,0.86,1.74
13.30193305015564,-1.76,-0.18,0.78,1.93
13.31157898902893,-1.8,-0.15,0.57,1.89
13.321600914001465,-1.74,0.12,0.48,1.8
13.331543922424316,-1.65,0.25,0.34,1.7
13.342841863632202,-1.62,0.27,0.37,1.68
13.359328985214233,-1.63,0.23,0.5,1.72
13.361527919769287,-1.72,0.1,0.72,1.86
13.371687889099121,-1.79,0.17,0.93,2.02
13.38278079032898,-1.91,0.43,0.88,2.14
13.391742944717407,-1.96,1.34,1.02,2.58
13.401728868484497,-2.12,3.65,1.6,4.51
13.412415981292725,-2.99,5.59,1.96,6.63
13.422245979309082,-4.5,5.14,1.64,7.02
13.432291984558105,-6.86,4.22,5.59,9.8
13.44429087638855,-13.32,1.89,21.91,25.71
13.451849937438965,-14.54,2.01,4.26,15.28
13.462384939193726,-14.39,5.34,-3.82,15.81
13.47200083732605,-15.25,6.54,0.24,16.59
13.483064889907837,-14.24,5.11,-4.71,15.84
13.491997003555298,-12.32,4.76,-7.94,15.41
13.503920793533325,-9.35,4.52,-7.97,13.09
13.512763977050781,-3.76,2.1,-10.57,11.41
13.522457838058472,2.78,0.03,-15.7,15.94
13.53227686882019,4.87,4.43,-12.92,14.5
13.544588804244995,4.67,6.35,-9.19,12.1
13.552007913589478,4.15,2.79,-10.51,11.63
13.562715768814087,2.54,-0.17,-10.85,11.14
13.572091817855835,0.18,-1.39,-8.8,8.91
13.582772970199585,-1.23,-2.41,-5.35,5.99
13.592923879623413,-1.77,-3.77,-2.57,4.89
13.602412939071655,-3.08,-5.1,-5.29,7.96
13.612703084945679,-5.86,-4.76,-8.27,11.19
13.622783899307251,-9.38,-2.92,-8.46,12.96
13.63254690170288,-11.57,-1.72,-8.98,14.74
13.645106077194214,-11.29,-1.63,-10.12,15.24
13.652239084243774,-9.12,-1.89,-10.87,14.31
13.662501096725464,-6.48,-1.86,-11.11,12.99
13.672430992126465,-4.12,-1.34,-11.15,11.96
13.682442903518677,-2.06,-0.3,-10.9,11.09
13.692425966262817,-0.34,0.74,-10.75,10.78
13.702332973480225,0.71,1.43,-10.79,10.9
13.712406873703003,0.68,1.54,-10.83,10.96
13.722947835922241,-0.26,1.27,-10.47,10.54
13.733027935028076,-1.31,0.95,-9.34,9.47
13.74531102180481,-1.93,0.48,-7.98,8.22
13.753525018692017,-2.12,-0.07,-6.88,7.19
13.762551069259644,-1.91,-0.37,-5.87,6.18
13.77257490158081,-1.25,-0.18,-4.92,5.07
13.783077955245972,-0.37,0.25,-4.58,4.6
13.792722940444946,0.53,0.93,-4.77,4.88
13.803822994232178,1.32,1.84,-5.15,5.62
13.81335186958313,1.94,2.82,-5.27,6.28
13.823246955871582,2.43,3.61,-5.09,6.69
13.832899808883667,2.91,4.08,-4.49,6.72
13.84607481956482,3.4,4.13,-3.63,6.46
13.852734804153442,3.77,3.9,-2.79,6.09
13.862762928009033,4.01,3.77,-1.96,5.84
13.872833013534546,4.14,3.68,-1.41,5.71
13.882898092269897,4.31,3.78,-0.94,5.8
13.892893075942993,4.66,4.05,-0.39,6.18
13.902792930603027,5.09,4.23,0.29,6.62
13.913866996765137,5.47,4.03,0.86,6.84
13.923255920410156,5.79,3.38,1.32,6.83
13.933212041854858,6.11,2.77,2.04,7.01
13.946401834487915,6.81,2.42,3.06,7.84
13.952938795089722,7.82,1.47,3.27,8.6
13.96293592453003,8.82,0.48,2.93,9.3
13.97298789024353,9.44,0.01,3.14,9.94
13.983527898788452,9.2,-0.56,3.05,9.7
13.99308705329895,8.46,-1.13,2.94,9.02
14.002972841262817,7.96,-1.48,3.04,8.64
14.014682054519653,8.0,-1.57,3.28,8.78
14.024358034133911,8.41,-1.48,3.47,9.21
14.03325891494751,8.83,-1.5,3.07,9.46
14.0464448928833,9.16,-1.47,2.37,9.57
14.05336594581604,9.53,-1.2,1.8,9.77
14.063251972198486,9.97,-0.79,1.5,10.11
14.073288917541504,10.3,-0.35,1.32,10.39
14.083416938781738,9.97,0.02,1.27,10.05
14.093305826187134,8.61,0.36,1.13,8.69
14.104077100753784,6.27,0.75,-0.41,6.32
14.113478899002075,1.39,8.93,6.59,11.18
14.126076936721802,-21.48,9.71,-0.56,23.57
14.13390588760376,-52.88,-10.18,-30.03,61.65
14.151134967803955,-36.53,2.9,8.37,37.58
14.153408765792847,-8.96,2.54,34.58,35.81
14.163668870925903,-4.14,-2.75,14.99,15.79
14.173543930053711,2.93,0.58,14.01,14.32
14.183631896972656,11.86,-2.16,8.85,14.95
14.19340991973877,25.12,-8.85,-7.49,27.66
14.20440411567688,32.82,-10.68,-32.77,47.59
14.213756799697876,28.19,5.27,-9.22,30.12
14.224081993103027,13.4,8.95,5.41,16.99
14.233810901641846,0.69,5.14,1.06,5.29
14.246334791183472,-4.08,1.76,-1.34,4.64
14.253567934036255,-5.81,-0.93,-4.12,7.18
14.264046907424927,-9.67,-2.54,-5.06,11.2
14.273603916168213,-11.4,-1.94,-1.54,11.66
14.284822940826416,-7.47,0.12,3.95,8.45
14.293740034103394,-2.89,0.4,7.29,7.85
14.304394006729126,0.14,-1.95,8.07,8.3
14.314084768295288,2.63,-4.53,5.18,7.36
14.325427770614624,4.81,-4.31,0.47,6.47
14.333997011184692,4.83,-1.0,-1.97,5.31
14.34689211845398,2.93,2.37,-2.01,4.27
14.353782892227173,1.04,3.57,-2.47,4.46
14.364108800888062,0.12,2.57,-3.23,4.12
14.373883962631226,-0.45,0.77,-2.91,3.04
14.384867906570435,-0.93,-0.5,-0.7,1.26
14.393955945968628,-1.0,-1.12,2.09,2.57
14.404628038406372,-0.82,-1.44,3.64,3.99
14.413995027542114,-0.84,-1.49,3.45,3.85
14.426483869552612,-1.04,-1.09,2.03,2.52
14.434427976608276,-0.94,-0.17,0.35,1.01
14.446780920028687,-0.32,0.64,-1.09,1.3
14.454038858413696,0.49,0.93,-2.05,2.3
14.464683771133423,1.17,0.95,-2.09,2.57
14.47508192062378,1.39,0.66,-1.39,2.07
14.484236001968384,1.09,0.17,-0.56,1.23
14.494090795516968,0.43,-0.21,0.02,0.47
14.504149913787842,-0.28,-0.25,0.35,0.51
14.51512885093689,-0.72,-0.24,0.58,0.95
14.526814937591553,-0.87,-0.3,0.71,1.16
14.534581899642944,-0.79,-0.32,0.64,1.06
14.548076868057251,-0.6,-0.11,0.53,0.8
14.554306983947754,-0.43,0.02,0.24,0.49
14.564835786819458,-0.21,0.04,-0.12,0.24
14.575545072555542,-0.02,0.03,-0.22,0.22
14.584920883178711,0.03,0.01,-0.09,0.09
14.594400882720947,0.01,-0.01,0.08,0.08
14.605098009109497,-0.04,-0.01,0.14,0.14
14.614959955215454,-0.2,-0.04,0.1,0.22
14.627206087112427,-0.42,-0.14,0.16,0.47
14.634877920150757,-0.57,-0.15,0.46,0.74
14.648953914642334,-0.62,-0.2,0.74,0.98
14.654403924942017,-0.69,-0.32,0.88,1.16
14.66511607170105,-0.77,-0.31,0.98,1.28
14.675903081893921,-0.8,-0.32,0.9,1.24
14.684725999832153,-0.82,-0.3,0.66,1.09
14.69451093673706,-0.79,-0.16,0.39,0.89
14.705246925354004,-0.7,-0.05,0.1,0.7
14.715205907821655,-0.61,0.02,-0.14,0.62
14.72809386253357,-0.57,0.14,-0.22,0.62
14.735120058059692,-0.71,0.13,-0.03,0.72
14.748064994812012,-0.98,-0.05,0.27,1.01
14.754680871963501,-1.34,-0.16,0.64,1.49
14.765357971191406,-1.64,-0.18,0.96,1.9
14.776242971420288,-1.66,-0.17,1.04,1.96
14.785912990570068,-1.4,-0.05,0.87,1.64
14.7952299118042,-1.06,0.15,0.53,1.19
14.805298089981079,-0.68,0.26,0.1,0.73
14.81550908088684,-0.25,0.39,-0.25,0.52
14.828346967697144,0.03,0.67,-0.39,0.77
14.836026906967163,0.07,0.96,-0.35,1.02
14.854918956756592,-0.13,1.22,-0.21,1.24
14.85687804222107,-0.42,1.37,-0.08,1.43
14.865041017532349,-0.62,1.39,-0.17,1.53
14.876667976379395,-0.67,1.55,-0.47,1.75
14.88503384590149,-0.62,2.03,-0.89,2.3
14.895490884780884,-0.4,2.8,-1.02,3.0
14.905824899673462,0.02,3.65,-0.53,3.68
14.91548490524292,-0.02,4.82,0.14,4.82
14.928668975830078,-1.06,4.61,-0.58,4.76
14.935492992401123,-2.26,4.71,-0.85,5.29
14.954754114151001,-3.03,5.7,-0.38,6.46
14.956875085830688,-3.48,5.87,-0.94,6.88
14.965300798416138,-3.67,6.04,-1.73,7.27
14.976983785629272,-3.61,6.77,-2.2,7.98
14.985251903533936,-3.62,7.62,-2.88,8.91
14.995276927947998,-4.09,8.11,-3.82,9.85
15.005173921585083,-5.2,8.56,-4.05,10.8
15.016824007034302,-6.78,8.9,-2.83,11.54
15.02868390083313,-8.16,8.2,-1.27,11.63
15.03567910194397,-8.59,6.76,0.75,10.95
15.054399967193604,-7.79,5.61,4.03,10.41
15.056321859359741,-5.78,4.96,8.19,11.18
15.0660240650177,-4.02,4.53,9.26,11.06
15.076335906982422,-3.51,3.46,6.46,8.12
15.085471868515015,-3.45,2.79,4.02,5.98
15.096564054489136,-3.95,2.99,1.92,5.31
15.106316804885864,-4.83,3.5,0.07,5.96
15.116008043289185,-6.13,3.55,-1.45,7.23
15.125913858413696,-7.77,3.08,-2.53,8.73
15.13604998588562,-8.97,2.73,-2.41,9.68
15.155044794082642,-9.71,1.89,-1.49,10.0
15.157100915908813,-10.28,0.15,-1.07,10.33
15.165769815444946,-10.58,-1.71,-0.84,10.75
15.176236867904663,-10.47,-2.98,-0.08,10.88
15.185717821121216,-10.09,-3.77,0.93,10.81
15.195689916610718,-9.8,-4.52,2.17,11.0
15.206697940826416,-9.76,-5.4,4.12,11.89
15.21729302406311,-9.5,-5.87,5.15,12.29
15.226244926452637,-8.79,-5.45,4.13,11.13
15.2361900806427,-8.12,-4.36,2.52,9.55
15.255823850631714,-7.87,-3.08,1.54,8.59
15.257617950439453,-7.87,-1.84,1.38,8.19
15.265819787979126,-7.68,-0.9,1.41,7.86
15.276431798934937,-6.94,-0.25,1.39,7.08
15.285841941833496,-5.67,0.37,1.61,5.9
15.295845985412598,-4.25,0.82,1.52,4.58
15.306029081344604,-3.09,1.26,1.31,3.58
15.316787958145142,-2.29,1.99,1.45,3.36
15.326371908187866,-1.57,2.71,1.72,3.57
15.33638310432434,-0.78,3.1,1.73,3.63
15.355441808700562,-0.07,3.26,1.51,3.59
15.356997966766357,0.35,3.54,1.33,3.79
15.367078065872192,0.45,4.04,1.2,4.23
15.376664876937866,0.35,4.56,1.08,4.69
15.386082887649536,0.09,5.0,0.88,5.07
15.396139860153198,-0.31,5.5,0.75,5.55
15.406121969223022,-0.77,6.31,0.92,6.42
15.416221857070923,-1.04,7.57,1.41,7.77
15.426989793777466,-0.94,8.97,1.48,9.13
15.437817811965942,-0.06,10.43,0.77,10.45
15.45461893081665,2.2,10.96,-0.61,11.19
15.456084966659546,6.3,9.91,-3.02,12.12
15.466191053390503,9.91,8.7,-4.88,14.06
15.476366996765137,11.37,7.86,-4.48,14.53
15.48738408088684,11.5,6.51,-3.58,13.69
15.496458768844604,11.07,4.66,-3.62,12.54
15.507295846939087,11.17,3.09,-3.72,12.17
15.516901969909668,12.43,1.95,-3.34,13.01
15.526734113693237,14.64,0.99,-2.79,14.93
15.536740064620972,17.13,-0.22,-2.57,17.32
15.555710077285767,19.07,-1.57,-2.6,19.31
15.557846784591675,19.83,-2.47,-2.0,20.08
15.566499948501587,19.3,-2.87,-0.82,19.52
15.578377962112427,17.55,-2.87,0.24,17.78
15.587575912475586,15.04,-2.38,0.8,15.24
15.596606016159058,12.79,-1.53,0.74,12.9
15.607406854629517,11.23,-0.56,0.07,11.24
15.617103815078735,10.3,0.33,-0.95,10.34
15.627114057540894,9.95,0.44,-1.37,10.05
15.636971950531006,8.45,3.76,3.5,9.88
15.655709028244019,-4.38,12.73,0.92,13.49
15.657904863357544,-36.29,1.6,-32.07,48.45
15.667468786239624,-35.16,9.04,-21.32,42.1
15.677221059799194,-9.27,10.4,3.08,14.26
15.687289953231812,4.55,2.85,11.81,12.97
15.69675898551941,13.03,3.23,12.94,18.64
15.707832098007202,19.57,-6.92,5.96,21.59
15.717710971832275,27.02,-10.13,0.64,28.86
15.727232933044434,27.09,-3.09,1.04,27.28
15.737294912338257,16.14,2.06,3.92,16.73
15.755325078964233,3.19,0.06,0.35,3.2
15.757105112075806,-5.7,-1.25,-2.97,6.54
15.767002820968628,-9.9,2.76,1.17,10.34
15.776955842971802,-16.1,1.06,-4.59,16.77
15.788042783737183,-16.44,0.9,-6.45,17.68
15.797006845474243,-8.05,5.5,2.38,10.03
15.807806968688965,0.02,1.81,3.51,3.94
15.817606925964355,7.77,-4.94,-1.52,9.33
15.827483892440796,13.63,-4.55,-3.29,14.74
15.837540864944458,13.86,0.85,-0.86,13.91
15.8560950756073,8.51,2.9,-0.23,8.99
15.858078956604004,2.46,1.15,-1.53,3.11
15.867221117019653,-2.52,-0.62,-1.31,2.9
15.877229928970337,-7.35,-1.36,0.14,7.47
15.887298822402954,-9.66,-1.26,2.18,9.98
15.897454977035522,-7.37,-0.36,4.82,8.81
15.908063888549805,-3.33,-0.72,5.72,6.65
15.917834997177124,0.83,-1.95,2.89,3.58
15.92758584022522,4.12,-1.01,-2.02,4.69
15.937628030776978,5.1,1.51,-4.88,7.21
15.956357955932617,4.26,2.99,-4.97,7.19
15.95848798751831,2.42,1.85,-3.52,4.65
15.967434883117676,0.12,-0.3,-0.88,0.93
15.977474927902222,-1.97,-1.3,2.0,3.09
15.987550973892212,-3.22,-1.18,3.6,4.97
15.998087882995605,-3.33,-0.97,3.31,4.79
16.00750184059143,-2.44,-0.74,1.8,3.12
16.017980813980103,-0.97,-0.32,0.18,1.03
16.027901887893677,0.46,0.19,-0.67,0.83
16.03818106651306,1.38,0.38,-0.99,1.74
16.056777954101562,1.48,0.4,-0.97,1.81
16.058624029159546,0.74,0.42,-0.84,1.19
16.06763792037964,-0.25,0.3,-0.81,0.89
16.07768988609314,-0.89,0.25,-0.59,1.09
16.088720083236694,-1.22,0.22,-0.05,1.24
16.09855580329895,-1.34,-0.01,0.43,1.4
16.108439922332764,-1.21,-0.18,0.67,1.39
16.118098974227905,-0.77,-0.11,0.67,1.02
16.128402948379517,-0.37,0.06,0.45,0.58
16.138439893722534,-0.22,0.18,0.04,0.28
16.15903878211975,-0.29,0.36,-0.27,0.53
16.160197973251343,-0.49,0.51,-0.33,0.78
16.16786789894104,-0.78,0.44,-0.12,0.9
16.17784810066223,-1.01,0.27,0.25,1.07
16.188999891281128,-1.08,0.22,0.66,1.28
16.199582815170288,-1.0,0.28,0.85,1.34
16.208460092544556,-0.72,0.38,0.72,1.08
16.21868395805359,-0.34,0.41,0.36,0.64
16.22809910774231,-0.09,0.41,-0.05,0.42
16.23863911628723,0.06,0.59,-0.38,0.7
16.257576942443848,0.08,0.95,-0.56,1.1
16.259730100631714,-0.03,1.17,-0.72,1.37
16.268136978149414,-0.44,3.63,0.34,3.67
16.278100967407227,-1.52,3.64,-0.37,3.96
16.28913378715515,-3.84,-0.25,-0.1,3.84
16.298017978668213,-3.57,0.53,1.36,3.85
16.308660984039307,-2.27,3.38,3.04,5.08
16.319226026535034,-1.75,2.49,1.24,3.28
16.32872700691223,-1.52,2.27,-1.34,3.04
16.338484048843384,-0.89,4.08,-2.42,4.82
16.356497049331665,-0.3,6.59,-2.02,6.89
16.358032941818237,-0.43,7.38,-2.77,7.89
16.36822199821472,-1.68,7.27,-3.95,8.44
16.37931990623474,-3.31,7.91,-3.72,9.34
16.38888192176819,-4.51,8.12,-3.36,9.87
16.40034794807434,-5.33,7.8,-3.63,10.12
16.408992052078247,-6.27,7.81,-3.65,10.65
16.418834924697876,-7.25,8.27,-3.38,11.5
16.428748846054077,-8.11,8.49,-3.4,12.22
16.43893599510193,-8.86,7.78,-3.85,12.4
16.458157777786255,-9.44,6.35,-4.02,12.06
16.46018099784851,-8.8,5.49,-2.44,10.65
16.46942400932312,-6.46,6.98,1.69,9.65
16.479028940200806,-4.5,7.93,3.59,9.79
16.489725828170776,-5.02,4.97,1.28,7.17
16.49972176551819,-5.81,2.2,-1.29,6.34
16.509325981140137,-3.57,3.52,-0.18,5.01
16.519774913787842,-0.96,4.65,0.16,4.75
16.52905583381653,-2.47,3.0,-1.54,4.18
16.539096117019653,-5.73,1.3,-1.77,6.13
16.558017015457153,-8.66,0.48,-2.33,8.98
16.56016707420349,-10.67,-0.27,-3.1,11.11
16.569132089614868,-11.59,-0.87,-3.22,12.06
16.57978391647339,-11.8,-1.35,-2.54,12.14
16.588819980621338,-11.42,-2.01,-1.65,11.71
16.60012984275818,-9.96,-2.36,-0.99,10.28
16.609873056411743,-8.14,-2.58,-1.14,8.61
16.618761777877808,-7.29,-2.68,-1.64,7.93
16.62943196296692,-6.98,-2.52,-1.78,7.63
16.63929009437561,-7.01,-2.39,-1.85,7.63
16.656741857528687,-7.61,-2.41,-2.06,8.24
16.65870690345764,-8.3,-2.52,-2.19,8.94
16.668993949890137,-8.62,-2.62,-2.19,9.27
16.67887592315674,-8.32,-2.41,-1.98,8.88
16.690021991729736,-7.4,-1.82,-1.7,7.8
16.70052194595337,-6.13,-1.04,-1.51,6.39
16.70953679084778,-4.96,-0.2,-1.34,5.14
16.71898102760315,-3.85,0.7,-1.11,4.06
16.729670763015747,-2.62,1.47,-1.1,3.19
16.73902201652527,-1.45,2.26,-1.22,2.94
16.756947994232178,-0.57,3.08,-1.2,3.35
16.759330987930298,-0.15,3.64,-1.21,3.83
16.769123792648315,-0.19,4.03,-1.11,4.18
16.77961492538452,-0.48,4.33,-0.9,4.44
16.78928780555725,-0.76,4.55,-0.6,4.65
16.800867795944214,-0.84,4.81,-0.18,4.88
16.810138940811157,-0.7,5.32,0.44,5.38
16.819710969924927,-0.4,6.06,0.97,6.15
16.829654932022095,0.32,7.23,1.57,7.4
16.839762926101685,2.17,8.68,1.97,9.16
16.858350038528442,5.17,10.17,1.17,11.46
16.859983921051025,8.99,12.12,-0.75,15.1
16.870211839675903,12.37,13.14,-2.72,18.25
16.88093090057373,13.61,12.1,-2.96,18.45
16.88986086845398,13.27,10.37,-0.38,16.84
16.901156902313232,13.11,8.29,1.8,15.61
16.909558057785034,14.53,5.73,2.42,15.8
16.91946578025818,18.25,3.0,2.0,18.6
16.929518938064575,23.76,0.26,1.61,23.81
16.940099000930786,29.24,-2.33,3.83,29.58
16.957317113876343,30.94,-5.24,10.21,32.99
16.959638833999634,26.57,-7.52,10.04,29.38
16.970207929611206,21.88,-5.0,4.82,22.95
16.979771852493286,19.42,-0.19,2.55,19.58
16.989782094955444,16.86,2.77,1.85,17.18
17.001492977142334,13.39,5.79,5.44,15.56
17.01061987876892,1.35,14.62,10.02,17.77
17.02019476890564,-31.2,1.49,-28.72,42.43
17.030102968215942,-42.25,5.65,-32.73,53.74
17.040161848068237,-19.2,11.63,-2.99,22.64
17.05939793586731,-2.42,-0.85,9.63,9.96
17.061542987823486,7.13,-3.61,25.13,26.37
17.069833993911743,8.75,-2.44,18.01,20.17
17.080923795700073,12.96,-5.97,8.8,16.76
17.08989691734314,21.97,-7.09,0.42,23.08
17.102138996124268,27.67,-4.03,-6.53,28.71
17.110702991485596,22.34,1.87,-4.84,22.93
17.120394945144653,11.64,5.61,-4.05,13.54
17.13013195991516,1.96,6.88,-5.52,9.03
17.140399932861328,-5.15,6.24,-5.09,9.55
17.16004204750061,-12.4,2.53,-9.57,15.86
17.16217303276062,-16.18,-0.14,-8.42,18.24
17.17014479637146,-11.66,-1.92,-1.52,11.91
17.1801118850708,-2.42,-5.11,17.95,18.81
17.19015598297119,0.63,-7.55,16.86,18.48
17.200960874557495,1.22,-5.62,-2.12,6.12
17.210340976715088,5.15,-1.62,-2.95,6.15
17.220628023147583,5.24,2.17,-1.12,5.78
17.230575799942017,3.65,3.89,-1.03,5.43
17.24066185951233,2.58,2.72,-2.55,4.53
17.261396884918213,1.03,0.64,-3.47,3.67
17.2625949382782,-1.15,0.18,-1.92,2.24
17.27036190032959,-2.38,-0.04,0.3,2.39
17.280688047409058,-2.14,-0.81,1.91,2.98
17.290299892425537,-1.26,-1.52,2.93,3.53
17.30204176902771,-0.57,-1.5,2.58,3.03
17.310581922531128,-0.22,-0.74,1.29,1.5
17.320827960968018,0.05,0.12,0.26,0.29
17.330610990524292,0.28,0.56,-0.63,0.88
17.341081857681274,0.42,0.7,-1.27,1.5
17.360338926315308,0.42,0.74,-1.28,1.53
17.36240792274475,0.31,0.51,-0.93,1.1
17.370507955551147,0.22,0.04,-0.46,0.51
17.381405115127563,0.19,-0.27,0.14,0.35
17.390456914901733,0.04,-0.33,0.63,0.71
17.40121293067932,-0.2,-0.24,0.84,0.89
17.41077208518982,-0.4,-0.11,0.76,0.86
17.421021938323975,-0.52,-0.07,0.39,0.65
17.431090116500854,-0.49,-0.06,-0.05,0.49
17.441272020339966,-0.3,0.14,-0.15,0.36
17.462237119674683,-0.08,0.36,-0.03,0.37
17.46334481239319,0.05,0.28,0.01,0.28
17.470762014389038,0.03,0.13,0.06,0.14
17.48169493675232,-0.05,0.09,0.13,0.16
17.490782022476196,-0.1,0.17,0.16,0.25
17.502145051956177,-0.15,0.25,0.12,0.31
17.51092505455017,-0.23,0.26,0.04,0.34
17.521382093429565,-0.38,0.24,0.09,0.45
17.530985116958618,-0.55,0.13,0.11,0.57
17.541292905807495,-0.69,0.0,0.09,0.69
17.55963397026062,-0.8,0.07,0.09,0.8
17.561182975769043,-0.87,0.18,-0.02,0.88
17.571359872817993,-0.88,0.29,-0.12,0.93
17.581876039505005,-0.93,0.48,-0.11,1.05
17.591010808944702,-1.09,0.57,-0.06,1.23
17.60266399383545,-1.27,0.71,0.01,1.45
17.611215829849243,-1.33,0.92,0.03,1.61
17.621457815170288,-1.21,1.48,-0.01,1.91
17.631205797195435,-1.26,2.33,-0.21,2.65
17.641463041305542,-1.81,1.99,-0.2,2.69
17.660107851028442,-1.91,1.5,-0.35,2.45
17.662025928497314,-1.47,2.33,-0.42,2.78
17.671109914779663,-1.12,3.35,-1.04,3.68
17.68110990524292,-0.97,4.82,-0.99,5.01
17.69124698638916,-1.24,6.9,-0.68,7.04
17.70187497138977,-1.95,6.86,-2.77,7.65
17.711686849594116,-2.89,6.79,-4.58,8.68
17.72189688682556,-3.74,7.95,-4.49,9.86
17.73140597343445,-4.39,8.92,-3.98,10.7
17.7416729927063,-4.83,8.81,-4.31,10.93
17.760853052139282,-5.29,7.62,-5.78,10.92
17.762555837631226,-6.4,6.61,-6.9,11.5
17.771333932876587,-7.82,6.64,-6.99,12.41
17.782327890396118,-8.15,8.91,-5.24,13.16
17.791417837142944,-5.91,12.18,-0.07,13.53
17.802057027816772,1.16,10.67,12.43,16.42
17.811846017837524,3.75,6.44,16.28,17.9
17.82261300086975,-1.72,2.06,7.66,8.11
17.83176302909851,-8.13,-0.2,1.47,8.26
17.842052936553955,-12.66,0.11,-0.54,12.67
17.860377073287964,-14.21,2.65,-0.06,14.45
17.861427068710327,-14.42,5.29,-1.0,15.39
17.871538877487183,-13.7,4.59,-0.64,14.46
17.88261580467224,-12.1,1.6,0.92,12.23
17.89164400100708,-10.34,0.26,1.6,10.46
17.902329921722412,-8.72,-1.02,1.7,8.94
17.912102937698364,-7.69,-2.2,1.58,8.15
17.9220929145813,-7.23,-2.88,1.72,7.97
17.932212114334106,-7.06,-3.08,2.19,8.0
17.942222833633423,-7.01,-3.1,3.12,8.27
17.96141505241394,-7.13,-3.38,3.94,8.81
17.963404893875122,-7.51,-4.01,3.71,9.28
17.971755981445312,-8.16,-4.47,2.87,9.73
17.982919931411743,-8.95,-4.3,2.36,10.2
17.991903066635132,-9.65,-3.47,2.55,10.56
18.00258708000183,-9.99,-2.37,3.35,10.79
18.012603044509888,-9.81,-1.48,4.43,10.86
18.023870944976807,-9.24,-0.88,5.54,10.8
18.032063961029053,-8.29,-0.4,6.56,10.57
18.042444944381714,-6.86,0.1,7.27,9.99
18.061290979385376,-5.45,0.47,7.28,9.1
18.063199996948242,-4.05,1.01,7.05,8.19
18.07191777229309,-3.07,1.99,6.98,7.88
18.082628965377808,-2.67,3.15,6.74,7.9
18.092081785202026,-2.54,4.51,6.5,8.3
18.102025985717773,-2.17,5.47,6.11,8.48
18.11314606666565,-1.56,6.14,5.45,8.35
18.124468088150024,-1.35,7.21,5.41,9.11
18.132291078567505,-1.31,8.26,5.82,10.18
18.14266276359558,-1.09,8.9,6.25,10.92
18.15411686897278,-0.75,8.86,6.81,11.19
18.162385940551758,-0.6,8.49,7.55,11.37
18.17220377922058,-0.46,8.38,8.34,11.83
18.183143854141235,-0.11,8.31,8.42,11.83
18.192676782608032,0.35,8.67,9.14,12.6
18.202330827713013,1.92,9.51,10.94,14.62
18.213215112686157,3.69,8.28,6.14,10.94
18.224997997283936,4.44,6.5,1.72,8.05
18.23268699645996,6.23,6.59,-0.42,9.07
18.242839097976685,10.46,7.18,-0.72,12.7
18.254283905029297,16.47,7.02,1.45,17.96
18.26262879371643,21.63,4.7,2.39,22.26
18.27353310585022,24.22,1.42,2.14,24.35
18.28254199028015,23.64,-0.45,3.05,23.84
18.292569875717163,20.32,-1.67,3.69,20.71
18.302544832229614,16.74,-3.25,2.8,17.28
18.313831090927124,15.1,-4.38,2.55,15.92
18.324869871139526,16.2,-4.79,3.21,17.19
18.3328378200531,18.63,-3.67,3.71,19.34
18.343029975891113,20.16,-1.52,3.26,20.47
18.354408025741577,19.6,0.02,0.64,19.61
18.36288809776306,16.55,1.36,-2.05,16.73
18.37381386756897,12.03,2.95,-2.83,12.7
18.383835077285767,4.17,7.61,-1.6,8.82
18.39278292655945,-16.47,16.38,-23.61,33.12
18.403286933898926,-32.12,7.13,-30.24,44.68
18.412827968597412,-21.14,-0.01,-6.73,22.18
18.4239981174469,-7.68,0.38,4.05,8.69
18.433531045913696,0.25,-1.67,16.62,16.7
18.44332790374756,4.75,-1.42,21.31,21.87
18.455095052719116,4.62,-2.6,11.8,12.93
18.4637668132782,7.12,-5.77,6.45,11.2
18.4742329120636,13.44,-5.9,1.39,14.74
18.48395609855652,18.61,-3.06,-4.84,19.47
18.493000984191895,17.39,3.52,-8.87,19.83
18.503679037094116,10.93,8.82,-8.2,16.26
18.51297092437744,3.16,5.63,-4.33,7.77
18.525948762893677,-1.72,1.92,-2.79,3.79
18.533232927322388,-3.72,1.89,-1.05,4.3
18.54344892501831,-6.73,0.16,-2.32,7.12
18.554649114608765,-9.35,-1.9,-2.65,9.9
18.563740968704224,-7.85,-1.38,1.45,8.1
18.574565887451172,-3.8,-1.13,4.87,6.27
18.584275007247925,0.02,-2.13,6.0,6.36
18.59328007698059,3.18,-3.52,5.3,7.11
18.603147983551025,4.88,-3.22,3.64,6.88
18.6132390499115,4.33,-1.22,2.06,4.94
18.624740839004517,1.99,0.52,0.25,2.07
18.633851766586304,-0.64,1.29,-1.69,2.22
18.643903970718384,-2.38,1.6,-2.77,3.98
18.654850959777832,-2.97,1.61,-2.71,4.33
18.663585901260376,-2.38,1.03,-2.1,3.33
18.67489790916443,-0.8,0.18,-1.06,1.34
18.684128046035767,1.0,-0.38,0.06,1.07
18.69346594810486,2.2,-0.6,0.78,2.41
18.7034649848938,2.35,-0.58,0.92,2.58
18.71433997154236,1.51,-0.35,0.68,1.69
18.727139949798584,0.13,-0.01,0.35,0.37
18.733569860458374,-1.19,0.23,0.09,1.21
18.743962049484253,-1.89,0.1,0.0,1.89
18.755970001220703,-1.71,-0.02,0.24,1.72
18.763442993164062,-0.8,-0.13,0.42,0.91
18.77521586418152,0.34,-0.13,0.35,0.5
18.784187078475952,1.15,0.03,0.08,1.15
18.793554067611694,1.19,0.19,-0.12,1.21
18.803607940673828,0.52,0.18,-0.16,0.57
18.813647031784058,-0.31,0.08,0.02,0.32
18.826047897338867,-0.83,0.02,0.32,0.88
18.83387589454651,-0.88,0.09,0.51,1.02
18.844162940979004,-0.56,0.13,0.35,0.67
18.855664014816284,-0.1,0.17,0.02,0.19
18.863943815231323,0.19,0.19,-0.24,0.36
18.873718976974487,0.1,0.16,-0.21,0.28
18.884907007217407,-0.31,-0.01,0.07,0.31
18.894232034683228,-0.81,-0.08,0.48,0.94
18.903798818588257,-1.22,0.01,0.9,1.51
18.914880990982056,-1.47,0.02,1.02,1.78
18.926086902618408,-1.58,0.14,0.97,1.85
18.93409490585327,-1.61,0.37,0.92,1.89
18.944435834884644,-1.63,0.39,0.7,1.81
18.95641779899597,-1.53,0.41,0.39,1.63
18.96504497528076,-1.21,0.8,0.16,1.45
18.974130868911743,-0.77,1.21,-0.11,1.43
18.98417592048645,-0.42,1.55,-0.42,1.65
18.99399209022522,-0.31,1.95,-0.61,2.06
19.004085779190063,-0.54,2.19,-0.8,2.39
19.01490092277527,-0.39,3.31,-1.29,3.57
19.024686098098755,-0.26,5.3,-1.88,5.62
19.034828901290894,-0.83,7.04,-1.17,7.18
19.044848918914795,-1.99,7.9,-0.75,8.18
19.05758309364319,-3.44,6.38,-2.19,7.57
19.06678080558777,-4.48,6.43,-1.98,8.08
19.07466197013855,-4.72,7.17,-1.15,8.66
19.084392786026,-4.56,7.5,-1.0,8.83
19.09433388710022,-4.61,7.98,-1.43,9.32
19.10418200492859,-5.1,8.32,-2.34,10.03
19.115329027175903,-5.99,8.48,-3.06,10.82
19.125226974487305,-7.02,8.98,-1.46,11.49
19.13493299484253,-5.18,10.31,0.82,11.56
19.144832849502563,-2.2,9.98,4.59,11.2
19.15618896484375,-2.28,8.68,5.55,10.55
19.16535210609436,-6.25,6.09,4.83,9.97
19.176586866378784,-10.34,3.95,3.91,11.73
19.18520498275757,-12.04,3.4,3.6,13.01
19.194618940353394,-12.17,4.42,3.52,13.41
19.204435110092163,-12.08,6.28,2.33,13.81
19.214651823043823,-11.08,5.82,0.93,12.55
19.227138996124268,-8.44,2.74,-0.81,8.91
19.235295057296753,-5.75,2.03,-1.78,6.35
19.245038986206055,-3.21,2.5,-0.48,4.09
19.256441831588745,-2.31,2.45,1.19,3.57
19.266145944595337,-3.54,0.87,0.88,3.75
19.275787115097046,-5.98,-1.03,-0.42,6.08
19.285818815231323,-8.53,-2.1,-1.04,8.84
19.294578790664673,-10.8,-2.51,-0.82,11.11
19.30471396446228,-12.38,-2.84,-0.32,12.7
19.315521955490112,-12.8,-3.43,0.14,13.25
19.325127840042114,-12.17,-3.99,1.13,12.85
19.33496403694153,-11.67,-4.28,4.53,13.22
19.34535002708435,-11.11,-4.63,6.92,13.88
19.35691809654236,-9.65,-4.34,5.5,11.92
19.367011785507202,-7.73,-3.39,3.33,9.07
19.37486696243286,-6.26,-2.45,1.96,7.0
19.385469913482666,-4.98,-1.21,1.6,5.36
19.394932985305786,-3.44,-0.31,0.58,3.5
19.404916048049927,-2.53,1.1,-0.56,2.81
19.415875911712646,-2.02,2.78,-1.06,3.59
19.425394773483276,-1.31,4.07,-1.23,4.44
19.43565797805786,-0.55,4.29,-1.52,4.58
19.445416927337646,-0.03,3.75,-1.57,4.06
19.457304000854492,0.25,3.37,-0.69,3.44
19.46697688102722,0.49,3.1,0.51,3.17
19.475026845932007,0.74,2.79,1.45,3.23
19.486326932907104,0.85,2.71,1.94,3.43
19.49512791633606,0.69,3.14,2.27,3.93
19.505143880844116,0.29,3.94,2.37,4.6
19.516644954681396,-0.02,4.97,2.36,5.5
19.525665998458862,0.06,6.31,2.71,6.86
19.535435914993286,0.73,7.59,2.97,8.18
19.545737981796265,2.03,8.54,2.84,9.22
19.5572030544281,3.89,9.53,2.78,10.66
19.567291021347046,6.14,10.31,2.26,12.21
19.57560396194458,8.28,10.03,1.3,13.07
19.586435079574585,9.91,9.07,0.89,13.46
19.595353841781616,11.24,7.83,1.25,13.75
19.60539197921753,12.54,6.22,1.77,14.1
19.61628293991089,13.99,4.53,2.68,14.94
19.62566590309143,15.79,3.21,3.99,16.59
19.635792016983032,17.89,1.88,4.94,18.65
19.646036863327026,20.03,0.21,5.06,20.66
19.657463788986206,21.6,-1.41,4.44,22.09
19.667678117752075,21.91,-2.21,4.25,22.42
19.67537808418274,21.04,-2.13,4.95,21.71
19.685666799545288,19.25,-1.41,5.6,20.09
19.69566297531128,16.88,-0.67,4.59,17.5
19.705617904663086,14.3,0.33,2.99,14.61
19.716546773910522,11.52,1.55,1.69,11.74
19.72573494911194,8.6,3.7,2.73,9.75
19.736253023147583,1.43,9.23,5.51,10.84
19.746118783950806,-19.17,5.14,-13.07,23.76
19.75830888748169,-33.06,5.28,-28.2,43.77
19.76891779899597,-19.06,9.86,-5.03,22.04
19.775768995285034,-6.43,-0.41,1.35,6.58
19.785846948623657,1.04,-4.14,8.19,9.23
19.795784950256348,8.09,-2.28,15.94,18.02
19.806867837905884,13.91,-2.91,11.2,18.09
19.815809965133667,22.1,-3.6,3.48,22.66
19.82817792892456,29.84,-0.08,-1.72,29.88
19.836399793624878,26.64,3.95,-4.7,27.33
19.84645390510559,13.78,3.59,-6.27,15.55
19.85846996307373,-0.49,3.39,-4.77,5.87
19.869098901748657,-14.19,3.09,-7.12,16.17
19.87614393234253,-22.08,-0.93,-6.55,23.04
19.886120080947876,-22.82,-7.83,20.53,31.67
19.896077871322632,-12.56,-8.05,11.01,18.54
19.906872987747192,-3.01,-1.19,-3.16,4.52
19.9164559841156,7.08,0.05,-0.33,7.08
19.926492929458618,12.94,-1.02,-1.84,13.1
19.936667919158936,13.86,1.92,0.56,14.0
19.94873881340027,10.46,2.55,0.59,10.78
19.95892596244812,3.84,0.06,-2.57,4.62
19.96952199935913,-2.72,-0.19,-2.73,3.85
19.97624897956848,-6.4,0.51,-0.85,6.47
19.987385034561157,-6.82,-0.36,1.74,7.04
19.99614691734314,-4.9,-1.7,3.96,6.52
20.006443977355957,-2.62,-1.84,2.7,4.18
20.01710295677185,-0.08,-1.15,0.71,1.35
20.02673602104187,2.44,-0.16,-0.19,2.45
20.037261962890625,3.75,0.82,-0.58,3.88
20.048255920410156,3.75,1.23,-1.22,4.13
20.058109998703003,2.58,1.06,-2.11,3.49
20.069875955581665,0.89,0.74,-2.39,2.65
20.076404809951782,-0.75,0.56,-1.62,1.87
20.08705997467041,-1.72,0.13,-0.54,1.8
20.097397089004517,-1.94,-0.37,0.65,2.07
20.106587886810303,-1.91,-0.67,2.16,2.96
20.116426944732666,-1.44,-1.02,2.68,3.2
20.127492904663086,-0.66,-0.95,1.89,2.21
20.136555910110474,-0.25,-0.35,0.73,0.84
20.149038076400757,-0.14,0.3,-0.06,0.33
20.15801191329956,-0.26,0.69,-0.34,0.81
20.169612884521484,-0.02,0.49,-0.69,0.84
20.176584005355835,0.26,0.27,-0.56,0.67
20.1867458820343,0.21,0.33,-0.04,0.39
20.197718858718872,-0.14,0.2,0.42,0.48
20.20687508583069,-0.59,-0.07,0.72,0.93
20.21774411201477,-0.75,-0.28,0.65,1.03
20.227482080459595,-0.29,-0.12,0.43,0.53
20.23723006248474,0.19,0.29,0.29,0.45
20.24950909614563,0.28,0.4,-0.04,0.48
20.258146047592163,0.18,0.46,-0.24,0.54
20.270731925964355,-0.01,0.62,-0.15,0.63
20.276904821395874,-0.38,0.72,0.08,0.81
20.287380933761597,-0.6,0.46,0.09,0.76
20.298091888427734,-0.48,0.36,0.09,0.6
20.30701184272766,-0.43,0.35,0.02,0.55
20.317044973373413,-0.49,0.34,-0.33,0.68
20.327749013900757,-0.51,0.29,-0.69,0.9
20.337695837020874,-0.43,0.24,-0.88,1.0
20.349923849105835,-0.53,0.4,-0.67,0.94
20.35817289352417,-0.77,0.83,-0.21,1.15
20.371052026748657,-1.1,1.48,0.39,1.88
20.37712597846985,-1.42,1.85,0.46,2.37
20.388231992721558,-1.83,2.54,0.24,3.13
20.398531913757324,-2.38,3.32,-0.16,4.08
20.4078209400177,-2.4,3.85,-0.5,4.56
20.417706966400146,-2.05,5.31,0.26,5.69
20.4282968044281,-2.26,6.34,0.15,6.73
20.43791389465332,-2.96,5.7,-1.86,6.68
20.449878931045532,-3.39,5.63,-2.96,7.2
20.459008932113647,-3.5,6.61,-2.65,7.93
20.47162699699402,-3.86,7.63,-2.11,8.8
20.47728705406189,-4.63,8.26,-2.09,9.69
20.487375020980835,-5.57,8.4,-2.31,10.34
20.49891996383667,-6.5,8.11,-2.09,10.6
20.507417917251587,-7.39,7.52,-1.16,10.6
20.51798176765442,-6.91,7.43,1.69,10.28
20.52783179283142,-2.56,8.55,6.46,11.01
20.53774380683899,1.5,9.55,10.23,14.07
20.550265073776245,-1.28,6.81,7.42,10.15
20.558767080307007,-7.23,3.72,3.51,8.85
20.571868896484375,-11.05,4.19,3.03,12.19
20.57751202583313,-11.93,6.53,3.03,13.93
20.588621854782104,-10.89,8.14,2.22,13.77
20.599363088607788,-8.18,5.44,0.77,9.85
20.607660055160522,-5.12,2.27,-0.68,5.64
20.61854577064514,-2.41,2.12,-0.5,3.24
20.628456830978394,-1.72,3.22,1.8,4.07
20.638102769851685,-3.58,2.89,2.62,5.29
20.650962114334106,-7.26,1.03,1.08,7.41
20.659487009048462,-11.08,-0.69,-0.59,11.11
20.672420978546143,-13.26,-0.99,-0.29,13.3
20.67758011817932,-13.52,-0.97,0.87,13.58
20.687846899032593,-13.29,-1.59,2.49,13.61
20.69779896736145,-14.03,-2.97,8.18,16.5
20.708826780319214,-14.5,-4.56,11.73,19.19
20.718302965164185,-12.22,-4.69,8.26,15.47
20.728540897369385,-8.82,-3.02,5.39,10.76
20.738521814346313,-6.18,-1.84,3.82,7.49
20.751611948013306,-3.84,-1.35,2.45,4.75
20.760634899139404,-2.41,0.24,2.63,3.57
20.772999048233032,-1.26,2.27,3.32,4.21
20.778048992156982,0.45,3.16,2.77,4.22
20.78911280632019,2.42,2.94,1.0,3.93
20.799784898757935,3.32,2.94,0.31,4.44
20.808023929595947,2.54,3.27,1.09,4.28
20.818105936050415,0.98,2.89,2.06,3.68
20.828747034072876,-0.1,1.71,2.94,3.4
20.83931803703308,-0.31,0.41,3.96,3.99
20.84832787513733,0.08,-0.43,5.15,5.16
20.859352827072144,0.51,-0.87,5.68,5.76
20.873204946517944,0.67,-0.69,5.05,5.14
20.878126859664917,0.56,-0.12,3.43,3.47
20.88876986503601,0.28,0.62,1.92,2.03
20.898741006851196,-0.1,1.34,1.59,2.08
20.908212900161743,-0.48,1.62,2.25,2.81
20.920202016830444,-0.75,1.51,3.04,3.47
20.92864203453064,-0.93,1.07,3.6,3.86
20.938853979110718,-1.17,0.62,3.59,3.82
20.948954820632935,-0.81,0.7,3.77,3.91
20.960120916366577,0.4,1.05,4.04,4.19
20.973976850509644,2.18,1.37,4.17,4.9
20.978323936462402,4.42,1.86,3.85,6.14
20.98845076560974,7.73,3.07,3.04,8.85
20.99852204322815,12.35,4.65,1.42,13.27
21.008538007736206,17.66,6.74,-0.27,18.9
21.019450902938843,20.74,7.9,-2.43,22.32
21.029319047927856,19.0,6.87,-3.93,20.58
21.039122819900513,14.24,5.64,-1.95,15.43
21.04881978034973,10.3,4.0,0.82,11.07
21.060706853866577,8.55,2.02,3.03,9.29
21.074034929275513,8.76,0.18,4.88,10.02
21.078591108322144,10.56,-1.03,6.73,12.56
21.088676929473877,13.38,-1.62,8.5,15.93
21.100652933120728,16.38,-1.92,9.37,18.96
21.10876202583313,18.57,-1.9,7.81,20.23
21.11926293373108,19.08,-1.05,5.38,19.85
21.128875017166138,17.61,0.61,3.77,18.01
21.139139890670776,14.73,1.97,2.34,15.04
21.148932933807373,11.59,2.62,0.7,11.9
21.15989398956299,8.22,5.31,0.94,9.83
21.17409586906433,-7.26,15.62,-8.62,19.26
21.179598093032837,-48.17,15.33,-50.25,71.27
21.189071893692017,-43.59,-3.65,-22.6,49.23
21.198924779891968,-6.7,-1.41,32.22,32.93
21.208940982818604,1.71,-7.24,41.38,42.04
21.218944787979126,-2.24,-4.37,10.61,11.69
21.230073928833008,2.63,0.67,10.86,11.19
21.23901677131653,12.87,-0.89,7.84,15.09
21.24985384941101,28.46,-1.13,-24.3,37.43
21.259805917739868,31.31,2.4,-29.95,43.39
21.274235010147095,20.88,5.39,5.89,22.35
21.279267072677612,8.24,2.38,5.96,10.44
21.289117097854614,0.0,-0.67,2.29,2.38
21.299282789230347,-4.55,-3.6,-0.6,5.83
21.309282064437866,-9.77,-4.05,-1.58,10.69
21.320413827896118,-14.49,-2.47,-1.82,14.81
21.329581022262573,-14.65,0.38,3.67,15.1
21.339547872543335,-9.32,2.9,7.79,12.48
21.349425077438354,-3.86,1.35,3.46,5.35
21.361113786697388,2.85,-3.66,-0.96,4.73
21.375253915786743,9.67,-6.2,-6.51,13.2
21.379304885864258,11.07,0.2,-1.03,11.11
21.389291048049927,7.59,4.85,3.97,9.84
21.3993079662323,2.69,1.46,-0.36,3.08
21.409302949905396,-1.82,-1.59,-3.52,4.26
21.419343948364258,-5.46,-0.78,-1.26,5.65
21.430190801620483,-6.36,-0.53,1.62,6.58
21.439873933792114,-4.8,-0.8,4.36,6.53
21.44997000694275,-2.85,-0.57,4.25,5.14
21.460745096206665,-1.55,-0.74,1.56,2.32
21.474978923797607,0.42,-0.99,-0.44,1.16
21.47934889793396,2.52,-0.78,-2.19,3.42
21.489609956741333,2.99,1.27,-1.39,3.53
21.500606775283813,2.63,2.27,-0.74,3.55
21.509780883789062,1.83,1.18,-1.5,2.64
21.520214796066284,0.5,-0.01,-1.64,1.71
21.529823064804077,-0.87,-0.23,-0.43,0.99
21.540018796920776,-1.68,-0.25,0.95,1.94
21.54970097541809,-1.79,-0.67,1.6,2.49
21.56210684776306,-1.44,-0.95,1.63,2.37
21.576222896575928,-0.83,-0.61,1.43,1.76
21.580701112747192,-0.16,-0.05,0.93,0.94
21.58965492248535,0.29,0.29,0.11,0.42
21.600839853286743,0.36,0.52,-0.48,0.79
21.609884023666382,0.2,0.56,-0.76,0.96
21.61980390548706,-0.07,0.45,-0.61,0.76
21.63079285621643,-0.25,0.24,-0.22,0.41
21.64027690887451,-0.3,0.11,0.14,0.34
21.65003490447998,-0.29,0.23,0.37,0.52
21.661621809005737,-0.3,0.43,0.37,0.64
21.67650008201599,-0.38,0.49,0.08,0.62
21.679917097091675,-0.46,0.53,-0.15,0.71
21.690370798110962,-0.52,0.59,-0.16,0.8
21.70003581047058,-0.61,0.71,0.04,0.93
21.71006178855896,-0.78,0.83,0.35,1.19
21.719953775405884,-1.08,0.76,0.44,1.39
21.730915784835815,-1.41,0.59,0.26,1.55
21.74157190322876,-1.51,0.52,-0.07,1.59
21.750447988510132,-1.3,0.75,-0.31,1.53
21.76203989982605,-0.87,1.15,-0.4,1.49
21.776922941207886,-0.64,1.45,-0.32,1.61
21.780279874801636,-0.81,1.69,0.02,1.87
21.790187120437622,-1.37,2.04,0.55,2.51
21.800334930419922,-2.2,2.6,0.94,3.53
21.810285806655884,-3.03,3.52,0.92,4.73
21.822601079940796,-3.48,4.57,0.4,5.75
21.830614805221558,-3.36,5.94,0.33,6.83
21.84075379371643,-3.38,7.62,0.04,8.33
21.850990056991577,-3.78,7.18,-2.33,8.44
21.862361907958984,-4.03,7.2,-3.73,9.05
21.877335786819458,-3.91,8.52,-3.38,9.96
21.880342960357666,-3.69,9.19,-3.43,10.48
21.890487909317017,-3.78,9.58,-3.45,10.86
21.90029788017273,-4.23,10.21,-2.44,11.31
21.911117792129517,-5.14,10.17,-1.66,11.51
21.92033886909485,-6.32,9.6,-0.89,11.52
21.931508779525757,-7.31,9.06,0.85,11.67
21.940892934799194,-7.91,8.87,3.08,12.27
21.95112681388855,-8.53,8.53,4.3,12.8
21.96232795715332,-9.74,6.47,3.44,12.18
21.97775888442993,-10.9,4.07,2.22,11.84
21.980643033981323,-10.96,3.24,1.9,11.58
21.99065399169922,-9.06,3.81,2.68,10.18
22.000653982162476,-6.05,3.73,2.3,7.47
22.01067590713501,-4.1,2.22,0.37,4.67
22.0217387676239,-4.32,0.46,-2.06,4.8
22.03154993057251,-5.72,-0.2,-2.76,6.35
22.041348934173584,-7.5,0.05,-1.72,7.69
22.051248788833618,-9.6,-0.3,-1.07,9.66
22.062878847122192,-11.13,-1.49,-1.38,11.31
22.0780770778656,-11.35,-2.48,-1.05,11.66
22.080724000930786,-10.65,-3.25,-0.36,11.14
22.090862035751343,-9.69,-4.03,0.45,10.5
22.10172200202942,-9.1,-4.77,2.09,10.48
22.110923051834106,-8.74,-5.34,2.92,10.65
22.123828887939453,-8.26,-5.28,1.98,10.0
22.130915880203247,-7.92,-4.25,0.87,9.03
22.141236066818237,-7.93,-2.98,0.34,8.47
22.15149998664856,-8.09,-2.12,-0.13,8.36
22.162064790725708,-7.84,-1.55,-0.54,8.0
22.17801594734192,-6.98,-1.15,-0.94,7.13
22.181121110916138,-5.73,-0.81,-1.43,5.96
22.191075086593628,-4.31,-0.15,-1.56,4.58
22.20106291770935,-2.8,0.81,-1.25,3.17
22.21124005317688,-1.13,1.7,-1.08,2.3
22.222619771957397,0.48,2.35,-1.39,2.77
22.231318950653076,1.66,2.89,-1.78,3.77
22.241896867752075,2.12,3.43,-1.9,4.45
22.251856088638306,1.9,3.92,-1.69,4.67
22.26345992088318,1.27,4.21,-1.22,4.56
22.278966903686523,0.69,4.41,-0.37,4.47
22.281338930130005,0.48,4.8,0.93,4.91
22.291265964508057,0.64,5.49,2.29,5.98
22.301214933395386,1.09,6.27,3.04,7.05
22.31190800666809,1.49,6.85,2.71,7.51
22.324641942977905,1.87,8.27,2.33,8.79
22.331509828567505,2.72,11.05,2.12,11.57
22.34277081489563,4.5,13.55,1.48,14.35
22.35167908668518,7.87,13.74,1.56,15.91
22.363069772720337,12.38,10.53,1.67,16.33
22.37936806678772,15.6,7.01,1.82,17.19
22.38157892227173,16.57,4.22,1.46,17.16
22.39164400100708,15.26,2.69,1.67,15.58
22.401587963104248,11.79,2.47,2.87,12.38
22.41232991218567,9.51,1.62,3.39,10.22
22.424370050430298,10.66,0.09,3.75,11.3
22.431798934936523,14.11,-1.26,4.05,14.73
22.44195294380188,17.98,-1.96,4.29,18.58
22.45214581489563,20.57,-2.2,4.3,21.12
22.462984800338745,21.12,-2.41,3.27,21.5
22.471646070480347,20.31,-1.93,2.41,20.54
22.482151985168457,18.41,0.1,3.61,18.76
22.49178695678711,15.07,1.32,3.41,15.5
22.50224804878235,10.62,1.12,1.56,10.79
22.512361764907837,4.39,4.8,3.98,7.62
22.524266958236694,-11.25,9.27,-3.09,14.9
22.532001972198486,-33.16,7.25,-28.04,44.02
22.54218292236328,-26.35,5.91,-13.71,30.28
22.552270889282227,-8.98,2.04,0.51,9.22
22.563715934753418,0.52,-1.66,9.01,9.17
22.579843997955322,7.6,-0.4,17.93,19.47
22.582068920135498,11.8,-1.99,13.59,18.1
22.592050790786743,17.12,-5.75,6.38,19.15
22.60244584083557,22.83,-5.34,1.32,23.48
22.612872838974,22.51,-1.62,-1.52,22.61
22.622565984725952,14.79,1.49,-1.85,14.97
22.63232684135437,7.01,2.35,-4.09,8.44
22.64260196685791,1.26,5.25,-4.85,7.25
22.652694940567017,-4.54,7.15,-6.51,10.68
22.6646831035614,-12.07,3.98,-10.54,16.51
22.67210078239441,-15.26,1.36,-8.51,17.52
22.682099103927612,-10.54,0.21,-0.61,10.55
22.692255973815918,-2.7,-3.31,6.37,7.66
22.703134775161743,4.22,-8.32,16.26,18.74
22.71228003501892,5.69,-8.28,8.85,13.38
22.723196983337402,5.0,-2.88,0.19,5.77
22.732506036758423,3.16,1.58,-0.64,3.59
22.74279284477234,0.52,2.96,-2.82,4.12
22.75261902809143,-1.1,2.91,-4.65,5.59
22.765321016311646,-1.62,2.44,-4.17,5.09
22.772220849990845,-1.59,1.36,-2.65,3.37
22.782500982284546,-1.0,0.11,-0.66,1.2
22.792431116104126,-0.06,-0.94,1.17,1.5
22.802318811416626,0.64,-1.49,2.65,3.1
22.813260793685913,0.79,-1.42,3.25,3.63
22.8227961063385,0.41,-0.92,2.11,2.33
22.83284306526184,-0.17,-0.24,0.42,0.51
22.843040943145752,-0.61,0.34,-0.75,1.02
22.85315203666687,-0.74,0.71,-1.27,1.63
22.86621594429016,-0.63,0.78,-1.11,1.49
22.873265981674194,-0.43,0.38,-0.58,0.81
22.884354829788208,-0.24,-0.18,0.05,0.3
22.892688989639282,-0.12,-0.46,0.66,0.81
22.902561902999878,-0.13,-0.38,1.02,1.09
22.912678956985474,-0.31,-0.22,0.87,0.94
22.923552989959717,-0.52,-0.07,0.36,0.63
22.933135986328125,-0.67,0.12,-0.05,0.68
22.943095922470093,-0.71,0.25,-0.27,0.79
22.95315384864807,-0.64,0.29,-0.28,0.75
22.966166973114014,-0.49,0.19,-0.1,0.53
22.972769021987915,-0.34,0.12,0.14,0.38
22.9828839302063,-0.23,0.02,0.37,0.43
22.993870973587036,-0.25,0.0,0.49,0.55
23.00274896621704,-0.37,0.05,0.49,0.61
23.012887954711914,-0.46,0.17,0.4,0.63
23.023416996002197,-0.46,0.26,0.24,0.58
23.03324794769287,-0.4,0.23,0.02,0.46
23.043421983718872,-0.26,0.34,-0.07,0.43
23.053426027297974,-0.16,0.51,-0.02,0.53
23.06579279899597,-0.18,0.57,-0.03,0.59
23.072901010513306,-0.34,0.58,-0.04,0.67
23.083369970321655,-0.54,0.65,-0.04,0.84
23.092965841293335,-0.69,0.51,-0.16,0.87
23.103060007095337,-0.72,0.31,-0.29,0.83
23.11310887336731,-0.66,0.37,-0.18,0.77
23.123114824295044,-0.58,0.53,0.06,0.78
23.13390278816223,-0.58,0.71,0.27,0.95
23.14358687400818,-0.78,1.09,0.47,1.42
23.153416872024536,-1.22,1.28,0.57,1.85
23.166918992996216,-1.75,1.67,0.84,2.56
23.173248052597046,-2.21,2.33,1.08,3.38
23.183363914489746,-2.66,2.76,0.88,3.93
23.193357944488525,-2.92,3.38,0.38,4.48
23.204570055007935,-2.79,4.45,0.09,5.25
23.21389889717102,-2.38,5.58,0.48,6.08
23.22341799736023,-2.51,7.1,0.68,7.56
23.233978986740112,-3.34,6.61,-1.28,7.51
23.244084119796753,-4.26,6.33,-3.07,8.22
23.25398087501526,-4.77,7.23,-4.09,9.57
23.267122983932495,-4.7,8.34,-5.15,10.87
23.273371934890747,-4.4,9.68,-5.61,12.02
23.283835887908936,-4.36,10.06,-5.41,12.22
23.29340100288391,-5.3,8.82,-3.6,10.9
23.30352282524109,-5.79,9.4,1.61,11.15
23.313536882400513,-2.87,10.08,8.53,13.51
23.323528051376343,-1.21,7.4,9.96,12.46
23.33444905281067,-3.87,4.44,4.6,7.47
23.344098806381226,-9.37,3.0,0.77,9.86
23.35385489463806,-13.44,3.53,0.27,13.89
23.366959810256958,-13.74,4.81,1.52,14.63
23.37355899810791,-12.05,4.95,2.67,13.29
23.384217977523804,-11.14,2.46,1.1,11.46
23.393798112869263,-10.9,-0.51,-1.14,10.97
23.403780937194824,-10.76,-1.48,-1.4,10.95
23.413877964019775,-10.23,-1.12,0.07,10.29
23.42463707923889,-9.01,-1.02,1.33,9.16
23.434420824050903,-7.81,-1.71,1.4,8.11
23.444242000579834,-7.18,-2.66,0.7,7.68
23.454370975494385,-7.01,-3.02,0.16,7.63
23.467703104019165,-7.2,-2.62,0.05,7.66
23.474445104599,-7.83,-1.99,-0.08,8.07
23.485542058944702,-8.78,-1.55,-0.19,8.91
23.49395203590393,-9.74,-1.61,-0.67,9.89
23.50387692451477,-10.41,-1.76,-1.4,10.65
23.513922929763794,-10.5,-1.44,-2.0,10.78
23.52395510673523,-9.85,-0.9,-2.71,10.25
23.534454107284546,-8.35,-0.39,-4.04,9.28
23.546693086624146,-6.01,0.38,-5.79,8.35
23.554357767105103,-3.03,1.58,-7.63,8.36
23.56782293319702,0.31,3.27,-9.14,9.71
23.57407307624817,3.57,5.09,-10.04,11.8
23.584650993347168,6.03,5.89,-10.37,13.36
23.59403109550476,6.83,4.8,-10.41,13.34
23.604159116744995,5.95,2.79,-9.23,11.33
23.61484408378601,4.27,0.98,-7.28,8.49
23.624627828598022,2.67,-0.22,-5.52,6.13
23.63427710533142,1.48,-0.62,-4.27,4.56
23.64565396308899,0.69,-0.37,-3.78,3.86
23.65466594696045,0.38,0.35,-3.97,4.0
23.667189836502075,0.57,1.33,-4.81,5.02
23.674280881881714,1.02,2.28,-6.14,6.62
23.684662103652954,1.51,3.24,-7.25,8.08
23.695346117019653,1.97,4.09,-7.44,8.71
23.70432209968567,2.42,4.98,-6.36,8.43
23.71438193321228,2.76,5.64,-5.1,8.08
23.72501492500305,3.02,6.16,-4.66,8.29
23.734997034072876,3.38,6.6,-5.48,9.22
23.746489763259888,3.95,6.92,-6.72,10.42
23.754742860794067,4.95,7.15,-7.51,11.49
23.767575979232788,6.31,6.73,-7.84,12.1
23.774430990219116,7.71,5.67,-7.17,11.95
23.78514790534973,8.98,3.79,-5.5,11.19
23.79558777809143,9.91,2.52,-3.25,10.72
23.80453085899353,9.97,1.17,-2.36,10.31
23.815112829208374,10.63,-1.57,-4.81,11.77
23.824646949768066,14.68,-5.05,-7.28,17.14
23.83458399772644,21.87,-6.84,-6.45,23.8
23.845672845840454,27.98,-4.63,-3.16,28.53
23.8553569316864,28.81,-1.02,-1.56,28.87
23.87207293510437,22.97,0.34,-3.43,23.22
23.874928951263428,14.56,0.92,-5.6,15.62
23.88481593132019,8.65,1.46,-6.01,10.63
23.89586591720581,6.98,1.99,-4.39,8.48
23.90484881401062,3.34,13.26,5.77,14.84
23.915045022964478,-25.1,9.28,-7.18,27.7
23.92620301246643,-69.79,-16.26,-44.52,84.36
23.936400890350342,-41.74,0.42,-10.89,43.13
23.947416067123413,0.41,10.03,58.41,59.26
23.955842971801758,-1.7,-4.14,15.8,16.42
23.968101978302002,0.15,4.12,5.93,7.22
23.97492480278015,9.53,-1.55,8.08,12.59
23.985254049301147,17.74,-13.77,-12.46,25.68
23.9964599609375,22.25,-13.2,-28.56,38.53
24.005141973495483,28.54,9.1,-5.47,30.45
24.01568579673767,16.07,8.11,-0.18,18.0
24.025532960891724,-1.34,-0.54,-5.75,5.92
24.035560846328735,-8.97,-1.1,-2.01,9.25
24.04804301261902,-11.59,-1.68,1.2,11.77
24.05542778968811,-11.4,-1.38,1.93,11.64
24.070106983184814,-7.88,2.35,3.81,9.06
24.07509684562683,-3.44,3.46,6.07,7.78
24.08584189414978,-0.6,0.63,7.24,7.29
24.09686779975891,0.14,-2.57,5.77,6.31
24.1053409576416,2.09,-4.4,0.4,4.88
24.115444898605347,5.88,-3.44,-5.74,8.9
24.126040935516357,7.61,1.84,-6.27,10.03
24.135740995407104,5.43,4.63,-4.59,8.48
24.148492097854614,0.0,1.36,-4.21,4.42
24.1558940410614,-3.8,-0.7,-1.63,4.19
24.175249814987183,-4.94,-1.02,1.79,5.35
24.177067041397095,-3.99,-1.34,3.48,5.46
24.185576915740967,-2.5,-0.48,4.59,5.24
24.197186946868896,-2.0,-0.04,4.84,5.23
24.205418825149536,-2.13,-0.79,3.55,4.21
24.21543002128601,-1.82,-0.85,1.58,2.55
24.226322889328003,-0.72,-0.37,-0.81,1.14
24.23597502708435,1.32,-0.29,-3.44,3.69
24.249386072158813,3.12,0.52,-4.06,5.14
24.256011962890625,3.44,1.42,-2.74,4.62
24.27724599838257,2.1,0.53,-1.33,2.54
24.278405904769897,0.31,-0.56,0.02,0.64
24.285681009292603,-0.89,-0.58,1.23,1.62
24.29745888710022,-1.42,-0.25,1.71,2.23
24.30570101737976,-1.49,0.04,1.46,2.08
24.3157479763031,-1.18,0.22,0.78,1.43
24.32687783241272,-0.4,0.16,-0.17,0.46
24.336313009262085,0.64,-0.02,-1.01,1.19
24.347687005996704,1.36,0.05,-1.3,1.88
24.35606288909912,1.29,0.23,-1.03,1.66
24.375786066055298,0.46,0.19,-0.6,0.77
24.377729892730713,-0.54,0.15,-0.19,0.59
24.386488914489746,-1.17,0.22,0.13,1.19
24.39633297920227,-1.32,0.2,0.29,1.36
24.405983924865723,-1.19,0.0,0.32,1.23
24.415900945663452,-0.86,-0.11,0.25,0.9
24.427348852157593,-0.47,-0.02,0.12,0.48
24.43650197982788,-0.22,0.12,-0.05,0.25
24.446531057357788,-0.2,0.15,-0.21,0.32
24.45635199546814,-0.44,0.09,-0.21,0.49
24.475838899612427,-0.72,0.02,-0.08,0.72
24.477991819381714,-0.84,0.12,0.2,0.87
24.48602294921875,-0.81,0.04,0.38,0.89
24.497931957244873,-0.74,-0.02,0.5,0.89
24.506284952163696,-0.72,0.05,0.54,0.9
24.51615881919861,-0.78,0.22,0.45,0.92
24.526887893676758,-0.78,0.41,0.23,0.91
24.536712884902954,-0.75,0.44,-0.06,0.87
24.54671311378479,-0.58,0.38,-0.15,0.7
24.556527853012085,-0.44,0.41,0.06,0.6
24.575931787490845,-0.51,0.4,0.36,0.74
24.577969789505005,-0.76,0.54,0.69,1.15
24.586378812789917,-1.2,0.66,0.84,1.6
24.59675693511963,-1.68,0.85,0.91,2.09
24.606426000595093,-1.96,1.82,1.22,2.93
24.61678695678711,-1.98,2.45,1.0,3.3
24.627046823501587,-2.85,1.47,0.81,3.3
24.636965036392212,-3.15,1.22,1.48,3.68
24.646820783615112,-2.78,2.87,2.77,4.86
24.656714916229248,-3.31,4.27,4.48,7.01
24.676370859146118,-4.86,5.3,4.45,8.45
24.67797589302063,-6.55,6.68,1.3,9.44
24.686572790145874,-7.93,7.25,-1.72,10.88
24.696485996246338,-8.23,7.13,-3.15,11.33
24.70660901069641,-7.22,6.97,-3.13,10.51
24.716572046279907,-5.51,6.89,-2.11,9.07
24.727638959884644,-3.58,6.6,-1.41,7.63
24.73655676841736,-2.01,6.58,-1.15,6.97
24.747462034225464,-1.33,7.11,-1.64,7.41
24.756532907485962,-2.32,7.82,-2.28,8.46
24.77464985847473,-5.14,8.27,-1.81,9.9
24.77693796157837,-8.04,6.94,-1.42,10.71
24.787758111953735,-9.06,4.91,-0.13,10.3
24.796759843826294,-7.89,3.26,2.83,8.99
24.80687403678894,-6.08,1.69,5.25,8.2
24.816839933395386,-5.68,-0.48,5.43,7.87
24.82753300666809,-6.75,-2.21,2.5,7.52
24.83740496635437,-7.77,-2.24,0.06,8.08
24.847261905670166,-8.78,-1.04,-1.34,8.94
24.857192993164062,-10.67,-0.2,-3.2,11.14
24.876842975616455,-13.66,-0.34,-5.85,14.86
24.879021883010864,-16.27,-0.56,-7.87,18.08
24.887030839920044,-16.71,-0.75,-8.48,18.75
24.897484064102173,-14.33,-1.24,-8.26,16.58
24.90709376335144,-9.94,-1.93,-8.79,13.4
24.91698694229126,-4.64,-2.05,-10.17,11.36
24.927818059921265,0.78,-0.96,-11.18,11.24
24.937535047531128,5.71,1.02,-11.22,12.63
24.94731593132019,8.1,1.91,-11.48,14.17
24.957457780838013,6.53,0.95,-12.58,14.2
24.97627282142639,2.0,-0.39,-12.56,12.72
24.977897882461548,-3.27,-1.04,-11.29,11.79
24.987097024917603,-7.85,-1.37,-10.22,12.95
24.997200965881348,-10.83,-2.08,-9.79,14.74
25.007314920425415,-11.96,-2.97,-9.17,15.36
25.017231941223145,-11.95,-3.59,-7.91,14.77
25.02831196784973,-11.09,-3.89,-6.53,13.44
25.037347078323364,-9.59,-3.62,-5.48,11.62
25.048109769821167,-7.81,-3.02,-5.41,9.96
25.058074951171875,-5.99,-2.39,-6.61,9.23
25.075146913528442,-3.94,-1.06,-8.49,9.41
25.077658891677856,-1.49,1.54,-10.0,10.22
25.087541818618774,1.09,4.31,-11.07,11.92
25.097492933273315,3.11,5.61,-12.18,13.76
25.107567071914673,4.03,5.19,-12.45,14.07
25.117494821548462,3.81,4.12,-10.64,12.02
25.128004789352417,2.84,2.93,-7.66,8.67
25.138062953948975,1.71,1.79,-5.31,5.85
25.147981882095337,0.84,1.11,-3.9,4.14
25.158140897750854,0.39,1.24,-2.99,3.26
25.1771879196167,0.35,2.05,-2.6,3.32
25.17911982536316,0.65,3.08,-2.75,4.17
25.18765902519226,1.21,4.11,-3.32,5.42
25.198078870773315,1.81,5.06,-3.88,6.62
25.20776677131653,2.34,5.81,-4.15,7.51
25.219512939453125,2.74,6.17,-4.14,7.91
25.22827410697937,3.11,6.16,-3.95,7.95
25.23831796646118,3.51,5.61,-3.71,7.58
25.248278856277466,4.13,4.85,-3.21,7.13
25.258188009262085,5.07,3.91,-2.59,6.9
25.27561593055725,6.26,2.89,-1.92,7.15
25.277658939361572,7.68,2.01,-1.0,8.0
25.2877459526062,9.08,1.14,-0.42,9.16
25.29825711250305,9.96,0.46,0.08,9.97
25.307981967926025,10.28,0.09,0.4,10.28
25.317877054214478,10.34,-0.02,0.45,10.34
25.328853845596313,10.27,-0.3,0.31,10.27
25.338332891464233,10.14,-0.94,0.2,10.18
25.34846806526184,9.93,-1.6,0.42,10.06
25.358354806900024,9.63,-1.85,1.1,9.86
25.37657904624939,9.15,-1.78,1.97,9.52
25.37834095954895,8.57,-1.47,2.7,9.1
25.388173818588257,8.05,-0.86,3.25,8.72
25.398281812667847,7.5,-0.22,3.42,8.24
25.408217906951904,6.97,0.23,3.2,7.67
25.418073892593384,6.53,0.51,2.59,7.04
25.429223775863647,6.17,1.16,1.82,6.53
25.4389750957489,4.78,4.37,3.99,7.6
25.44865107536316,-2.92,8.27,4.34,9.78
25.45898199081421,-24.54,-2.45,-11.32,27.13
25.475630044937134,-35.46,-9.03,-19.42,41.42
25.478473901748657,-17.72,3.0,-1.76,18.05
25.488264799118042,-3.21,6.4,17.73,19.12
25.49836802482605,-0.53,-0.9,16.57,16.6
25.508386850357056,0.02,-3.95,8.14,9.04
25.519673109054565,4.86,-0.39,9.64,10.8
25.528587102890015,10.02,0.85,9.67,13.95
25.53899598121643,15.88,-2.88,-1.41,16.2
25.548869848251343,17.78,-4.15,-21.81,28.44
25.5590717792511,17.82,4.72,-15.08,23.81
25.576650857925415,13.87,10.24,-4.89,17.92
25.578654050827026,6.74,3.29,-0.89,7.55
25.588228940963745,0.04,-2.19,-2.34,3.2
25.598581075668335,-4.48,-2.07,-0.23,4.94
25.608593940734863,-7.77,-0.95,2.25,8.14
25.619491815567017,-9.22,-1.45,2.39,9.63
25.62903904914856,-6.88,-0.36,3.64,7.79
25.639045000076294,-3.01,1.17,6.09,6.89
25.649200916290283,-0.06,-0.21,5.54,5.54
25.660231828689575,2.72,-2.75,1.55,4.16
25.67655897140503,5.66,-3.08,-2.79,7.02
25.67849588394165,6.95,-0.28,-4.05,8.04
25.688684940338135,5.7,3.05,-3.42,7.31
25.698662996292114,1.69,3.67,-3.8,5.54
25.70886778831482,-3.09,2.1,-3.61,5.19
25.72103190422058,-6.62,-0.33,-1.23,6.74
25.72893786430359,-7.74,-3.16,2.25,8.65
25.739331007003784,-5.81,-4.58,6.8,10.04
25.74914789199829,-4.21,-3.68,13.1,14.24
25.759637117385864,-3.04,-2.21,9.33,10.05
25.777500867843628,-2.08,-0.99,2.99,3.77
25.778756856918335,-0.84,-1.01,-1.77,2.2
25.78892993927002,2.57,-0.94,-6.8,7.32
25.79901909828186,5.95,2.13,-6.72,9.22
25.8089919090271,7.2,4.88,-4.37,9.73
25.82291007041931,5.56,3.63,-4.41,7.97
25.830143928527832,2.47,1.02,-4.01,4.81
25.83939480781555,-0.54,-0.7,-1.61,1.83
25.849567890167236,-2.49,-1.78,1.22,3.29
25.85967183113098,-3.05,-2.03,3.62,5.15
25.877179861068726,-2.86,-1.89,5.22,6.24
25.87938690185547,-2.84,-1.42,4.61,5.59
25.889132976531982,-2.64,-0.8,2.18,3.51
25.899188995361328,-1.83,-0.49,0.09,1.89
25.909981966018677,-0.28,-0.42,-1.33,1.42
25.921056985855103,1.13,0.34,-1.42,1.84
25.929367780685425,1.8,0.93,-0.94,2.23
25.940205812454224,1.63,0.72,-0.77,1.94
25.949811935424805,0.79,0.11,-0.74,1.08
25.959832906723022,-0.27,-0.13,-0.24,0.38
25.977720022201538,-1.13,-0.08,0.5,1.23
25.979552030563354,-1.5,-0.14,0.91,1.76
25.989900827407837,-1.45,-0.32,0.97,1.77
25.999479055404663,-1.11,-0.38,0.94,1.5
26.00950598716736,-0.75,-0.4,0.75,1.13
26.0211398601532,-0.57,-0.35,0.5,0.83
26.030776977539062,-0.56,-0.24,0.29,0.67
26.0399968624115,-0.61,-0.09,0.06,0.61
26.05008292198181,-0.64,0.09,-0.15,0.66
26.060116052627563,-0.59,0.21,-0.2,0.65
26.07748007774353,-0.52,0.14,-0.12,0.55
26.079608917236328,-0.54,-0.02,0.12,0.55
26.089648962020874,-0.57,-0.14,0.53,0.79
26.099684953689575,-0.57,-0.21,0.79,0.99
26.110203981399536,-0.59,-0.11,0.82,1.01
26.11955189704895,-0.58,0.03,0.62,0.84
26.131047010421753,-0.47,0.17,0.24,0.55
26.14001488685608,-0.31,0.33,-0.11,0.46
26.14995503425598,-0.13,0.43,-0.28,0.52
26.160165071487427,0.0,0.41,-0.37,0.55
26.178817987442017,0.08,0.36,-0.31,0.48
26.180504083633423,-0.01,0.5,-0.04,0.5
26.189774990081787,-0.32,0.57,0.19,0.68
26.200305938720703,-0.65,0.59,0.23,0.9
26.209934949874878,-0.79,0.75,0.15,1.09
26.219876050949097,-0.76,0.89,-0.11,1.17
26.230676889419556,-0.62,1.26,-0.31,1.43
26.240012884140015,-0.57,1.71,-0.33,1.83
26.250812768936157,-0.63,3.3,0.13,3.36
26.260648012161255,-1.23,3.78,-0.2,3.98
26.278376817703247,-2.55,1.75,-0.2,3.09
26.280159950256348,-2.07,1.86,1.19,3.02
26.29017186164856,-1.68,4.82,3.13,5.98
26.300563097000122,-2.62,4.24,0.46,5.0
26.31014394760132,-3.18,3.46,-2.85,5.49
26.32081699371338,-2.59,4.84,-3.8,6.67
26.33061909675598,-1.5,6.17,-4.13,7.57
26.34061598777771,-0.71,6.78,-4.56,8.2
26.350547075271606,-0.63,7.16,-4.97,8.73
26.360909938812256,-1.58,7.66,-4.84,9.19
26.37999391555786,-3.28,8.4,-4.11,9.91
26.38210892677307,-5.62,8.94,-2.88,10.94
26.39040493965149,-8.54,9.04,-1.63,12.54
26.400588989257812,-10.51,9.59,-0.41,14.23
26.410444021224976,-11.34,8.42,0.73,14.14
26.42030692100525,-10.76,6.07,1.43,12.43
26.43130087852478,-7.84,6.09,5.58,11.38
26.441593885421753,-4.54,7.33,9.27,12.65
26.450730085372925,-4.69,4.83,6.55,9.39
26.461039781570435,-6.42,2.06,2.44,7.17
26.481875896453857,-7.26,2.25,1.5,7.74
26.483064889907837,-6.41,4.77,2.86,8.48
26.490620851516724,-4.82,6.28,2.22,8.22
26.501439809799194,-4.44,5.37,-1.4,7.1
26.510560989379883,-5.6,3.36,-3.33,7.33
26.52038311958313,-7.43,1.86,-2.83,8.16
26.530680894851685,-8.86,1.22,-1.51,9.07
26.541964769363403,-9.66,0.33,-0.56,9.68
26.550923109054565,-10.14,-1.29,-0.39,10.22
26.561065912246704,-10.34,-2.92,-0.17,10.74
26.58051300048828,-10.0,-4.0,0.83,10.8
26.582515001296997,-9.85,-5.01,4.04,11.76
26.59071397781372,-10.0,-6.08,7.07,13.67
26.601797819137573,-9.5,-6.49,5.6,12.79
26.610820055007935,-8.55,-5.48,2.6,10.48
26.62064790725708,-8.05,-3.74,1.05,8.93
26.63094687461853,-8.29,-2.17,0.61,8.59
26.64126706123352,-8.94,-1.14,0.31,9.01
26.651068925857544,-9.43,-0.64,-0.08,9.45
26.661282777786255,-9.36,-0.38,-0.03,9.36
26.68056893348694,-8.7,-0.18,0.68,8.72
26.68265700340271,-7.7,-0.06,1.87,7.92
26.690911054611206,-6.6,0.09,3.01,7.25
26.700888872146606,-5.39,0.59,3.83,6.63
26.711117029190063,-4.2,1.33,4.02,5.96
26.721004962921143,-3.39,2.06,3.33,5.17
26.731868028640747,-2.95,3.08,2.29,4.84
26.74152112007141,-2.36,4.65,1.5,5.42
26.751449823379517,-1.3,6.51,0.98,6.71
26.761467933654785,-0.04,8.07,0.21,8.07
26.78239607810974,1.09,9.27,-0.66,9.35
26.783643007278442,1.8,10.27,-0.81,10.45
26.79129195213318,2.13,11.15,-0.19,11.35
26.801676034927368,2.72,12.32,1.0,12.65
26.811964988708496,4.1,13.36,1.77,14.08
26.82172989845276,6.38,13.44,1.28,14.93
26.831867933273315,9.26,12.92,0.38,15.9
26.842007875442505,11.21,11.45,-0.47,16.03
26.85125494003296,12.23,10.07,-0.55,15.85
26.86174702644348,13.35,8.66,-0.21,15.91
26.880017042160034,15.63,6.14,-0.54,16.8
26.881582975387573,19.44,2.96,-1.21,19.7
26.891195058822632,23.88,-0.37,-1.93,23.96
26.90202498435974,26.74,-4.06,-3.27,27.24
26.91212487220764,28.29,-5.95,-2.98,29.06
26.92202091217041,29.14,-4.51,2.97,29.63
26.932101011276245,29.2,-4.17,9.9,31.11
26.94263482093811,26.14,-4.24,6.84,27.35
26.951864004135132,21.79,-1.14,2.48,21.96
26.961929082870483,18.23,2.06,1.16,18.38
26.972754955291748,14.73,4.1,0.6,15.3
26.981761932373047,8.7,12.73,4.83,16.15
26.992734909057617,-25.52,8.88,-26.98,38.18
27.002351999282837,-73.04,0.9,-67.46,99.43
27.011672973632812,-34.91,11.29,-10.58,38.18
27.02258610725403,1.88,2.35,45.68,45.77
27.03244709968567,6.41,-5.75,43.12,43.97
27.042036771774292,1.51,-4.59,9.06,10.26
27.0520761013031,9.68,-5.33,7.65,13.44
27.062941789627075,27.58,-4.95,0.41,28.02
27.074321031570435,38.56,-9.32,-23.67,46.19
27.083306074142456,29.19,-0.53,-16.83,33.69
27.09160590171814,11.6,10.42,2.53,15.79
27.10186195373535,-3.98,7.15,-1.42,8.3
27.111875772476196,-8.34,5.06,-0.06,9.75
27.122859001159668,-12.15,-0.15,-3.16,12.55
27.13268208503723,-17.78,-7.23,-8.0,20.79
27.143245935440063,-11.86,-2.46,0.69,12.13
27.152384042739868,-3.19,2.43,9.54,10.34
27.16240692138672,0.53,-0.03,10.09,10.1
27.180887937545776,4.11,-4.54,4.81,7.78
27.182564973831177,8.74,-5.59,-3.02,10.8
27.191776990890503,9.25,-0.96,-6.2,11.17
27.20212697982788,5.2,5.01,-2.63,7.68
27.21207594871521,0.78,5.24,-1.82,5.6
27.222079038619995,-1.53,0.76,-2.87,3.33
27.232966899871826,-3.2,-2.8,-1.31,4.44
27.244663953781128,-4.38,-2.93,3.15,6.13
27.25259494781494,-4.35,-1.56,7.77,9.04
27.262672901153564,-3.16,-0.98,5.27,6.22
27.274167776107788,-1.99,-0.93,0.58,2.27
27.28241276741028,-0.13,-0.92,-2.13,2.32
27.291910886764526,1.49,0.15,-2.68,3.07
27.30282187461853,2.28,1.61,-1.43,3.13
27.31231999397278,2.47,1.77,-0.59,3.09
27.32222008705139,1.92,0.7,-0.51,2.1
27.33233094215393,0.67,-0.29,-0.35,0.8
27.3448269367218,-0.75,-0.4,0.37,0.92
27.35256791114807,-1.68,-0.16,1.06,1.99
27.36276412010193,-2.03,-0.14,1.27,2.39
27.374196767807007,-1.87,-0.31,1.01,2.14
27.382553815841675,-1.28,-0.35,0.58,1.44
27.392361879348755,-0.54,-0.1,0.26,0.6
27.403523921966553,0.15,0.2,-0.04,0.25
27.41249394416809,0.61,0.33,-0.36,0.78
27.422641038894653,0.67,0.4,-0.59,0.97
27.433096885681152,0.29,0.44,-0.59,0.79
27.44513988494873,-0.35,0.4,-0.35,0.63
27.453330993652344,-1.03,0.27,0.01,1.06
27.46309208869934,-1.54,0.12,0.38,1.59
27.47451901435852,-1.79,0.12,0.72,1.93
27.4828360080719,-1.77,0.19,0.87,1.98
27.49323296546936,-1.6,0.27,0.92,1.86
27.50386691093445,-1.44,0.4,0.87,1.72
27.512789011001587,-1.39,0.75,0.87,1.8
27.52280306816101,-1.5,1.02,0.7,1.94
27.533750772476196,-1.51,1.39,0.28,2.07
27.545520067214966,-1.25,2.56,-0.36,2.87
27.55309796333313,-1.34,2.46,-1.11,3.01
27.56345009803772,-1.45,1.72,-0.99,2.45
27.574903964996338,-1.23,1.72,0.06,2.11
27.58388590812683,-0.95,2.39,1.0,2.75
27.594090938568115,-1.16,3.21,0.83,3.51
27.603076934814453,-1.93,3.95,-0.24,4.4
27.612839937210083,-2.78,5.01,-1.37,5.89
27.62395191192627,-3.2,6.28,-2.08,7.34
27.633071899414062,-3.02,7.68,-1.49,8.38
27.645688772201538,-3.15,10.39,-0.41,10.86
27.653374910354614,-4.14,10.98,-2.05,11.91
27.66338086128235,-5.6,11.14,-3.85,13.04
27.674719095230103,-6.88,12.35,-3.9,14.66
27.68317484855652,-8.16,13.09,-3.74,15.87
27.69461178779602,-9.47,14.01,-2.92,17.16
27.703917980194092,-10.15,14.32,-2.0,17.66
27.713090896606445,-10.05,12.02,-2.13,15.81
27.724199056625366,-9.35,9.9,-0.82,13.64
27.73341679573059,-8.72,10.59,3.06,14.05
27.744558095932007,-9.56,8.02,4.31,13.2
27.753220796585083,-11.06,4.08,3.08,12.18
27.763871908187866,-11.53,2.49,2.04,11.97
27.77453088760376,-10.45,3.01,2.17,11.08
27.78370189666748,-7.93,4.07,2.52,9.26
27.794310808181763,-5.44,3.73,1.33,6.72
27.803855895996094,-4.74,1.46,-2.47,5.54
27.813392877578735,-5.39,-0.6,-5.38,7.63
27.82397484779358,-6.43,-1.28,-5.5,8.55
27.83424210548401,-7.73,-1.32,-4.28,8.93
27.845953941345215,-9.33,-1.63,-3.1,9.96
27.85359501838684,-10.75,-2.65,-2.32,11.31
27.864028930664062,-11.24,-4.0,-1.88,12.07
27.873615026474,-10.9,-5.26,-0.31,12.1
27.884555101394653,-10.95,-6.68,3.61,13.32
27.895428895950317,-10.92,-7.47,4.84,14.08
27.903624773025513,-10.17,-6.96,2.24,12.52
27.914074897766113,-9.28,-5.08,0.23,10.58
27.923505067825317,-8.88,-2.92,-0.27,9.35
27.933998823165894,-9.05,-1.28,-0.57,9.15
27.945714950561523,-9.48,-0.33,-1.23,9.56
27.95425581932068,-9.52,0.14,-2.07,9.74
27.96410584449768,-8.7,0.73,-2.22,9.0
27.97419285774231,-7.12,1.48,-1.94,7.52
27.985562086105347,-5.14,2.23,-1.67,5.84
27.995776891708374,-3.06,3.08,-1.66,4.64
28.00386691093445,-0.84,3.92,-2.12,4.53
28.013803958892822,1.3,4.83,-2.8,5.73
28.023783922195435,2.97,5.93,-3.37,7.43
28.034301042556763,3.75,7.01,-3.99,8.89
28.046211004257202,3.51,7.91,-4.47,9.74
28.05424189567566,2.66,8.83,-4.28,10.16
28.064264059066772,1.95,9.88,-3.48,10.65
28.075838804244995,1.95,11.06,-2.58,11.52
28.085527896881104,2.74,12.57,-2.26,13.06
28.096143007278442,4.83,14.53,-2.51,15.51
28.104180097579956,8.16,15.66,-4.0,18.1
28.114152908325195,11.96,14.62,-6.25,19.89
28.125870943069458,14.89,13.33,-5.17,20.64
28.13534188270569,16.73,12.18,-2.69,20.86
28.144595861434937,16.79,9.56,-1.13,19.35
28.154834032058716,15.93,4.82,-2.3,16.8
28.1644868850708,18.24,0.42,-3.78,18.63
28.175168991088867,25.06,-5.66,-6.51,26.5
28.18495798110962,32.73,-10.97,-5.22,34.91
28.19662594795227,38.98,-10.42,8.33,41.19
28.20493197441101,35.32,-5.06,9.79,36.99
28.214221954345703,25.92,-0.29,1.57,25.96
28.225449800491333,18.85,2.22,-1.62,19.04
28.234381914138794,11.89,5.26,0.58,13.01
28.244971990585327,4.38,12.22,7.0,14.74
28.254812955856323,-17.38,12.33,-8.31,22.87
28.264909982681274,-57.82,-3.53,-42.98,72.13
28.276667833328247,-40.76,15.96,-21.14,48.61
28.285475969314575,-4.12,14.54,13.21,20.07
28.2948739528656,11.58,4.7,28.03,30.68
28.305346965789795,12.26,-4.51,22.51,26.02
28.314471006393433,15.17,-18.32,1.07,23.8
28.325280904769897,26.53,-16.28,-3.87,31.36
28.335429906845093,29.12,-3.02,-1.96,29.34
28.345381021499634,19.9,2.91,1.08,20.14
28.35507082939148,7.13,3.77,-1.12,8.14
28.365771055221558,-2.67,4.89,-3.51,6.58
28.37697196006775,-4.94,8.07,0.17,9.46
28.386751890182495,-10.94,2.0,-9.82,14.83
28.3946750164032,-14.91,-0.1,-14.31,20.66
28.404750108718872,-8.13,6.31,-2.29,10.54
28.41479182243347,-0.41,2.94,1.36,3.26
28.425472021102905,5.87,-4.21,0.06,7.22
28.435192823410034,10.42,-5.37,3.1,12.12
28.445110082626343,9.97,-2.01,6.37,12.0
28.455500841140747,4.28,-0.86,4.35,6.16
28.465529918670654,-2.24,-0.82,-0.09,2.38
28.477694988250732,-6.05,1.04,-2.22,6.52
28.487272024154663,-6.69,2.0,-2.73,7.49
28.49477982521057,-4.18,0.75,-2.0,4.69
28.506091833114624,0.03,-0.73,0.09,0.73
28.514832973480225,3.04,-1.37,1.67,3.72
28.525630950927734,3.58,-1.03,1.87,4.16
28.5355007648468,2.33,-0.19,1.15,2.6
28.5451557636261,0.29,0.13,0.0,0.31
28.555339097976685,-1.48,0.2,-0.66,1.63
28.566075086593628,-2.4,0.43,-0.6,2.51
28.576767921447754,-2.41,0.4,-0.17,2.44
28.58748197555542,-1.67,-0.07,0.31,1.69
28.59505009651184,-0.62,-0.37,0.72,1.01
28.6056649684906,0.29,-0.21,1.0,1.06
28.61504888534546,0.65,-0.02,0.91,1.11
28.626394987106323,0.48,-0.06,0.44,0.65
28.635931968688965,-0.13,0.19,-0.01,0.23
28.645328998565674,-0.88,0.46,-0.42,1.07
28.655619859695435,-1.36,0.5,-0.64,1.58
28.66604495048523,-1.46,0.51,-0.48,1.61
28.67837405204773,-1.25,0.56,-0.06,1.37
28.68790888786316,-0.94,0.56,0.28,1.12
28.695339918136597,-0.67,0.55,0.42,0.96
28.70563578605652,-0.39,0.75,0.3,0.89
28.715348958969116,-0.06,1.03,-0.07,1.03
28.726387977600098,0.22,1.37,-0.55,1.49
28.736316919326782,0.24,2.09,-0.75,2.23
28.745968103408813,-0.52,1.91,-0.76,2.12
28.755512952804565,-1.58,1.4,-0.05,2.11
28.76599907875061,-2.08,1.24,1.05,2.63
28.77686595916748,-1.84,1.28,1.17,2.52
28.787714958190918,-1.14,1.53,0.07,1.9
28.79538607597351,-0.42,1.56,-1.47,2.18
28.805694818496704,-0.08,2.27,-1.89,2.95
28.8155357837677,-0.44,3.43,-1.36,3.71
28.826668977737427,-1.37,3.74,-1.22,4.16
28.8363618850708,-2.39,3.84,-1.43,4.74
28.845863103866577,-3.1,4.38,-1.52,5.57
28.855995893478394,-3.52,5.06,-1.51,6.34
28.866667985916138,-3.82,5.79,-1.53,7.1
28.87735390663147,-4.13,6.99,-1.88,8.33
28.888678789138794,-4.29,8.7,-2.01,9.9
28.895713090896606,-4.47,10.68,-1.15,11.63
28.90612292289734,-5.06,12.72,-0.04,13.68
28.915891885757446,-6.35,14.32,0.69,15.67
28.92642593383789,-8.25,15.4,0.65,17.48
28.936557054519653,-11.03,15.57,-0.99,19.1
28.94703984260559,-15.52,15.01,-3.79,21.92
28.956589937210083,-19.6,16.98,-8.01,27.14
28.96582293510437,-17.4,12.49,-4.92,21.97
28.977057933807373,-12.75,6.13,-2.1,14.3
28.988672018051147,-9.88,3.34,0.67,10.45
28.995837926864624,-8.32,0.96,-0.36,8.38
29.006114959716797,-6.3,0.48,-1.69,6.54
29.01600694656372,-1.43,1.53,-1.65,2.66
29.02715492248535,3.4,2.68,-2.56,5.02
29.036493062973022,4.08,2.48,-4.67,6.67
29.046546936035156,-0.64,-0.79,-8.93,8.98
29.056325912475586,-7.33,-3.22,-11.93,14.36
29.06711983680725,-12.35,-2.44,-10.68,16.5
29.077441930770874,-14.01,-1.64,-8.9,16.67
29.089188814163208,-13.03,-2.46,-8.4,15.69
29.096651792526245,-10.85,-3.72,-7.84,13.89
29.10677409172058,-8.47,-4.54,-6.48,11.59
29.116126775741577,-6.88,-4.23,-5.69,9.87
29.12700581550598,-6.47,-2.99,-5.65,9.09
29.137294054031372,-6.93,-1.87,-6.17,9.46
29.14684510231018,-8.3,-1.28,-7.1,10.99
29.156635999679565,-10.1,-1.22,-8.52,13.26
29.168279886245728,-11.1,-0.99,-9.84,14.86
29.17817187309265,-10.45,-0.09,-9.97,14.44
29.189924955368042,-8.55,1.06,-9.26,12.64
29.19642996788025,-6.31,1.99,-8.72,10.94
29.20661497116089,-4.12,2.97,-8.43,9.84
29.217399835586548,-2.01,3.96,-8.34,9.44
29.22697377204895,-0.09,4.81,-8.18,9.48
29.23653483390808,1.12,5.36,-7.96,9.66
29.24821400642395,1.48,5.8,-7.55,9.63
29.25711989402771,1.29,6.47,-6.71,9.41
29.268772840499878,0.87,7.5,-5.66,9.43
29.278522968292236,0.45,9.02,-4.75,10.2
29.289942979812622,0.28,10.99,-4.46,11.86
29.29775595664978,0.8,13.56,-4.86,14.42
29.307885885238647,2.6,16.58,-6.32,17.93
29.316745042800903,6.42,19.29,-8.9,22.19
29.327350854873657,12.26,20.54,-11.31,26.45
29.33694577217102,17.97,19.29,-11.11,28.6
29.34738278388977,21.88,16.34,-6.71,28.12
29.357431888580322,23.35,11.85,-0.85,26.19
29.367893934249878,22.81,5.0,1.4,23.39
29.37740206718445,24.71,-4.24,3.08,25.25
29.38885188102722,33.16,-16.4,10.93,38.57
29.397265911102295,38.68,-18.1,4.51,42.94
29.408463954925537,37.43,-4.4,-0.73,37.69
29.41692090034485,29.67,6.01,0.03,30.27
29.427639961242676,20.21,6.0,-2.43,21.22
29.436933994293213,10.74,9.45,6.21,15.59
29.44796109199524,-3.64,16.26,12.85,21.04
29.457645893096924,-34.9,-1.21,-14.86,37.95
29.468305826187134,-50.35,0.21,-26.85,57.06
29.477702856063843,-14.64,21.9,9.58,28.03
29.490694999694824,5.71,14.22,29.52,33.26
29.496991872787476,4.16,-9.13,10.04,14.19
29.5071759223938,7.97,-19.23,0.26,20.81
29.518551111221313,20.19,-14.76,-0.63,25.01
29.527379989624023,28.29,-4.66,-0.76,28.68
29.53749108314514,25.7,1.16,-1.77,25.78
29.547099828720093,16.05,5.76,-3.25,17.35
29.557239770889282,6.79,8.06,-3.98,11.26
29.57048010826111,2.49,7.14,-3.93,8.52
29.579046964645386,-5.17,3.58,-10.42,12.17
29.59162998199463,-14.1,0.27,-11.95,18.48
29.59725594520569,-13.37,1.18,-2.4,13.63
29.607959985733032,-6.55,0.48,4.48,7.95
29.618835926055908,-1.2,-3.43,8.59,9.32
29.6284499168396,3.3,-5.83,11.56,13.36
29.63869881629944,6.3,-4.16,7.18,10.41
29.647737979888916,6.56,-2.2,-0.68,6.95
29.657800912857056,3.71,0.59,-6.39,7.41
29.670617818832397,1.19,4.33,-6.51,7.9
29.679378986358643,-0.14,4.5,-4.67,6.48
29.691998958587646,-1.24,0.84,-3.16,3.49
29.697516918182373,-1.85,-2.1,-0.15,2.8
29.708711862564087,-1.98,-2.37,5.19,6.03
29.719218969345093,-2.08,-2.21,8.66,9.17
29.728626012802124,-1.52,-1.78,2.79,3.64
29.7381489276886,-1.07,-0.37,-1.27,1.7
29.748093843460083,-0.6,0.91,-2.17,2.42
29.75813388824463,0.18,1.38,-2.14,2.55
29.77127194404602,0.94,1.15,-1.45,2.07
29.780009984970093,1.23,0.34,-0.62,1.41
29.792321920394897,0.92,-0.34,0.5,1.1
29.797736883163452,0.14,-0.52,1.68,1.76
29.808774948120117,-0.67,-0.46,2.02,2.17
29.81960892677307,-1.31,-0.27,1.14,1.75
29.82882595062256,-1.71,-0.04,0.12,1.71
29.83830690383911,-1.84,0.05,-0.5,1.9
29.84803080558777,-1.6,0.14,-0.5,1.68
29.858297109603882,-1.07,0.22,-0.14,1.1
29.869719982147217,-0.63,0.24,0.19,0.7
29.88014793395996,-0.51,0.36,0.34,0.71
29.892543077468872,-0.73,0.39,0.29,0.87
29.89790987968445,-1.11,0.37,0.1,1.17
29.908024072647095,-1.48,0.56,0.16,1.59
