time,ax,ay,az,atotal
0.00904083251953125,0.07,0.08,-1.34,1.34
0.01900196075439453,0.14,0.25,-1.61,1.63
0.031668901443481445,-0.03,0.05,-1.45,1.45
0.039128780364990234,-0.02,-0.17,-0.83,0.84
0.049250125885009766,0.3,-0.22,0.2,0.42
0.0593259334564209,0.34,-0.32,0.69,0.83
0.06950998306274414,0.17,0.03,0.6,0.62
0.08078694343566895,-0.17,0.11,0.36,0.41
0.0897068977355957,-0.6,-0.02,-0.24,0.64
0.09979701042175293,-1.05,-0.28,-0.21,1.1
0.11005592346191406,-1.48,-0.58,-0.31,1.61
0.11993408203125,-1.04,-0.59,-0.3,1.23
0.1325550079345703,-0.36,-0.53,-0.48,0.8
0.1400909423828125,-0.05,-0.78,-1.3,1.51
0.15060186386108398,0.8,0.17,-1.35,1.57
0.16024112701416016,1.2,0.47,-1.31,1.83
0.17047882080078125,0.77,0.63,0.05,0.99
0.18162798881530762,0.06,0.29,1.0,1.04
0.19063997268676758,-0.29,0.49,1.13,1.26
0.2010488510131836,0.04,0.96,1.06,1.43
0.2106800079345703,0.48,1.1,0.71,1.39
0.2208080291748047,0.85,1.14,0.44,1.48
0.23803281784057617,1.05,0.69,0.45,1.33
0.24098896980285645,0.79,-0.02,0.72,1.06
0.25099802017211914,-0.48,-1.11,0.05,1.21
0.261138916015625,-0.62,-2.02,-1.67,2.69
0.27123594284057617,0.33,-2.05,-0.79,2.22
0.2826061248779297,0.41,-1.58,0.02,1.63
0.29137301445007324,-0.3,-0.76,1.54,1.74
0.30131101608276367,-0.49,-0.37,2.95,3.01
0.31154298782348633,-0.04,0.0,1.71,1.71
0.3216359615325928,0.64,0.7,-0.29,0.99
0.3330268859863281,0.76,0.47,-1.95,2.14
0.34177303314208984,0.43,-0.35,-2.32,2.38
0.35190892219543457,0.22,-1.1,-1.83,2.14
0.36189985275268555,0.2,-1.45,-1.35,1.99
0.3721029758453369,-0.04,-1.04,-0.38,1.1
0.3833770751953125,0.29,-0.27,-0.48,0.62
0.3921949863433838,1.1,-0.12,-0.98,1.47
0.40227293968200684,1.29,-0.23,-0.84,1.55
0.4123268127441406,0.7,0.06,-1.1,1.3
0.4223799705505371,0.21,0.31,-1.65,1.69
0.4389159679412842,-0.12,0.15,-2.71,2.71
0.4425699710845947,-0.72,-0.26,-3.54,3.62
0.4527468681335449,-0.73,-0.29,-2.97,3.07
0.4627218246459961,-0.25,0.04,-1.7,1.71
0.47292184829711914,-0.18,0.08,-0.36,0.41
0.4846768379211426,-0.45,-0.41,0.79,0.99
0.4930391311645508,-0.55,-0.97,0.94,1.45
0.5030529499053955,-0.61,-1.02,0.27,1.21
0.5130510330200195,-0.61,-0.37,-0.68,0.98
0.5232279300689697,-0.41,0.36,0.2,0.58
0.5396280288696289,0.46,0.07,7.83,7.84
0.5433709621429443,1.85,0.78,3.46,4.0
0.5537400245666504,3.02,1.3,-1.43,3.58
0.5635409355163574,0.84,0.85,0.65,1.36
0.5736961364746094,-1.15,0.0,0.87,1.44
0.5855000019073486,-0.53,-0.85,0.09,1.0
0.5938739776611328,0.62,-0.77,-1.37,1.68
0.6039018630981445,0.95,0.02,-1.45,1.73
0.6139998435974121,0.26,0.28,-0.25,0.45
0.6241850852966309,-0.03,0.15,1.26,1.26
0.6403717994689941,0.49,-0.14,2.26,2.31
0.6441597938537598,1.24,-0.3,1.02,1.63
0.6542699337005615,1.96,-0.32,-0.17,1.99
0.6643309593200684,1.94,-0.51,-0.54,2.07
0.6746010780334473,1.7,-0.78,-0.39,1.91
0.6859807968139648,1.77,-1.03,-1.5,2.53
0.6946778297424316,2.33,-1.07,-2.03,3.27
0.7047529220581055,2.24,-0.97,-1.69,2.96
0.7148780822753906,1.98,-0.7,-1.17,2.4
0.7262787818908691,1.55,-0.53,-0.6,1.74
0.7402749061584473,1.0,-0.43,-0.09,1.09
0.7450449466705322,0.47,-0.1,0.51,0.7
0.7551870346069336,0.98,0.42,0.78,1.32
0.7653639316558838,1.45,0.6,0.89,1.8
0.7754430770874023,1.92,1.5,1.91,3.09
0.7868428230285645,2.43,3.36,5.49,6.88
0.7955141067504883,-1.4,0.63,4.36,4.62
0.8055059909820557,-0.67,-9.02,-1.94,9.25
0.8156089782714844,4.96,1.19,1.63,5.35
0.8268070220947266,0.01,3.09,-0.84,3.2
0.8400959968566895,-2.56,0.93,-0.49,2.76
0.8457050323486328,-2.01,1.17,0.83,2.46
0.8559439182281494,-2.17,2.31,0.56,3.21
0.8658709526062012,-2.28,2.6,0.64,3.51
0.8760409355163574,-2.06,1.93,1.64,3.26
0.8874850273132324,-2.48,0.26,1.48,2.89
0.896176815032959,-3.08,-0.5,0.34,3.13
0.9062938690185547,-2.71,0.66,-0.35,2.81
0.9164319038391113,-2.73,1.08,-0.63,3.0
0.9275639057159424,-3.12,1.14,-0.29,3.33
0.9396259784698486,-3.28,1.53,-0.17,3.62
0.9465150833129883,-3.15,1.75,-0.17,3.6
0.9567818641662598,-2.53,1.7,-0.27,3.06
0.9671459197998047,-2.0,1.33,-0.32,2.42
0.9769809246063232,-1.41,0.99,-0.25,1.74
0.9882009029388428,-0.81,0.63,-0.32,1.07
0.9970660209655762,-0.85,0.39,-0.4,1.01
1.0070858001708984,-1.14,0.5,-0.69,1.42
1.0176868438720703,-1.11,0.76,-1.02,1.68
1.0283269882202148,-1.32,1.18,-0.86,1.96
1.0397419929504395,-1.61,1.37,-0.64,2.2
1.0473589897155762,-1.38,1.38,-0.73,2.08
1.057610034942627,-0.84,1.21,-0.64,1.6
1.0676579475402832,-0.06,0.99,-0.07,0.99
1.077834129333496,0.46,0.18,0.13,0.51
1.0890908241271973,0.93,-0.39,0.22,1.03
1.098097801208496,1.34,-0.61,0.42,1.53
1.108069896697998,1.66,-0.9,0.19,1.89
1.1181178092956543,1.93,-1.82,1.48,3.03
1.1281471252441406,2.67,-1.31,1.61,3.38
1.1403319835662842,2.94,0.54,-2.86,4.13
1.1482338905334473,1.87,0.94,-0.73,2.21
1.1583969593048096,-0.14,0.88,1.61,1.84
1.1684560775756836,-0.74,0.66,2.8,2.97
1.1787919998168945,-0.1,0.33,3.05,3.06
1.190195083618164,-0.17,-0.27,2.42,2.44
1.198883056640625,-0.04,-0.59,1.06,1.21
1.2088680267333984,0.93,-0.64,-0.59,1.27
1.2191147804260254,1.56,-0.76,-1.63,2.38
1.2290678024291992,1.46,-0.42,-1.78,2.34
1.2403829097747803,0.9,0.02,-1.2,1.5
1.2492380142211914,-0.17,0.15,-0.58,0.62
1.259294033050537,-0.86,0.28,-0.03,0.9
1.2693870067596436,-1.14,0.19,0.13,1.16
1.2794089317321777,-0.88,-0.01,-0.18,0.89
1.290970802307129,-0.19,-0.38,-0.75,0.86
1.2996230125427246,0.39,-0.67,-1.2,1.42
1.3096649646759033,0.55,-0.45,-1.03,1.25
1.319760799407959,0.44,0.12,-0.55,0.71
1.3297789096832275,0.46,0.34,0.0,0.57
1.341324806213379,0.13,0.2,0.52,0.57
1.3499689102172852,0.02,0.05,0.69,0.69
1.3600058555603027,0.33,-0.13,0.2,0.4
1.3701558113098145,1.29,1.16,-0.73,1.88
1.3801298141479492,3.52,2.78,-1.33,4.67
1.3916940689086914,4.14,-0.04,-0.33,4.15
1.400829792022705,1.89,-0.08,0.15,1.89
1.4105639457702637,-0.48,1.56,-0.27,1.65
1.420504093170166,-1.05,1.09,0.24,1.53
1.4305758476257324,-1.36,0.44,0.28,1.45
1.4418258666992188,-1.55,-0.01,0.14,1.55
1.451106071472168,-1.32,-0.45,-0.23,1.41
1.4607579708099365,-0.88,-0.54,-0.61,1.19
1.4709010124206543,-0.4,-0.72,-0.33,0.88
1.481050968170166,-0.18,-0.88,-0.27,0.93
1.492422103881836,-0.28,-0.61,-0.61,0.9
1.501183032989502,-0.63,-0.54,-0.45,0.94
1.5112769603729248,-1.02,-0.58,-0.21,1.19
1.5225510597229004,-1.43,-0.65,-0.08,1.57
1.5315039157867432,-1.24,-0.59,0.21,1.38
1.5427308082580566,-0.66,-0.53,0.5,0.98
1.5513849258422852,0.04,-0.47,0.8,0.92
1.5617029666900635,0.55,-0.36,0.66,0.93
1.5717520713806152,0.87,-0.13,0.44,0.98
1.5817780494689941,0.81,0.12,0.11,0.82
1.5933330059051514,0.58,0.44,-0.49,0.87
1.6018710136413574,0.33,0.29,-0.71,0.83
1.6120591163635254,0.04,0.0,-0.29,0.29
1.6233367919921875,-0.16,-0.01,-0.31,0.34
1.6322319507598877,-0.31,-0.13,-0.43,0.54
1.6434597969055176,-0.51,-0.27,-0.04,0.57
1.652204990386963,-0.45,-0.05,-0.01,0.45
1.6623730659484863,-0.29,-0.27,-0.06,0.4
1.6724867820739746,-0.03,-0.61,-0.14,0.62
1.6826138496398926,0.45,-0.44,-0.65,0.9
1.6941571235656738,0.62,-0.36,-1.59,1.74
1.7029099464416504,0.48,-0.49,-2.07,2.18
1.7129309177398682,0.11,-0.38,-1.84,1.88
1.7242460250854492,-0.29,-0.28,-1.15,1.21
1.733078956604004,-0.4,-0.12,-0.1,0.42
1.7443428039550781,-0.47,0.04,0.52,0.7
1.7532010078430176,-0.33,0.22,0.62,0.73
1.7632551193237305,-0.09,0.41,0.32,0.52
1.773453950881958,0.19,0.54,-0.05,0.57
1.784080982208252,0.61,0.47,-0.37,0.85
1.7948389053344727,0.69,0.24,-0.62,0.95
1.8036208152770996,0.53,0.1,-0.7,0.88
1.8136579990386963,0.22,-0.02,-0.36,0.42
1.824906826019287,-0.09,0.09,0.27,0.29
1.8387861251831055,-0.16,0.64,0.61,0.89
1.8452990055084229,-0.35,0.66,0.49,0.89
1.8540458679199219,-0.33,0.54,0.4,0.74
1.8640379905700684,0.26,0.66,0.55,0.89
1.8741869926452637,1.09,1.12,0.23,1.57
1.8845579624176025,1.17,0.14,0.3,1.21
1.895939826965332,0.76,-0.4,0.52,1.0
1.9045159816741943,0.09,0.6,-0.86,1.05
1.9145970344543457,-0.66,0.35,-0.89,1.16
1.9247441291809082,-1.6,-0.19,-0.08,1.61
1.939457893371582,-1.87,-0.19,0.64,1.98
1.9462261199951172,-1.76,-0.37,1.2,2.16
1.9549369812011719,-1.31,-0.62,0.86,1.68
1.9649629592895508,-0.46,-0.75,0.46,0.99
1.975088119506836,0.45,-0.75,0.08,0.87
1.9850859642028809,0.84,-0.69,-0.18,1.1
1.9967827796936035,0.62,-0.58,0.09,0.85
2.0056138038635254,0.24,-0.45,0.6,0.78
2.015403985977173,-0.38,-0.31,0.9,1.02
2.0254998207092285,-0.7,-0.13,0.92,1.16
2.0396649837493896,-0.99,-0.08,0.76,1.25
2.0470781326293945,-1.04,-0.15,0.6,1.21
2.0557351112365723,-0.57,-0.35,0.35,0.75
2.065709114074707,0.06,-0.39,0.32,0.5
2.0758869647979736,-0.1,-0.7,0.4,0.81
2.085932970046997,-0.14,-0.92,0.88,1.28
2.09768009185791,0.22,-1.09,0.54,1.23
2.1062419414520264,0.1,-1.34,0.21,1.36
2.1160969734191895,-0.21,-1.32,0.21,1.35
2.1263298988342285,-0.53,-1.02,0.13,1.15
2.140087127685547,-0.66,-0.9,-0.04,1.11
2.1478769779205322,-0.85,-1.07,0.14,1.37
2.1565380096435547,-0.54,-1.16,0.36,1.32
2.1665778160095215,0.17,-1.39,0.3,1.43
2.1767048835754395,0.81,-1.64,0.07,1.83
2.1869421005249023,1.22,-1.88,-0.19,2.24
2.1984899044036865,1.18,-2.14,-0.36,2.47
2.2070670127868652,1.06,-2.11,-0.3,2.38
2.217495918273926,1.21,-1.66,0.08,2.05
2.227083921432495,1.32,-1.6,0.62,2.16
2.2394509315490723,1.35,-2.08,0.7,2.57
2.248553991317749,1.07,-2.43,0.07,2.65
2.257382869720459,1.08,-2.16,0.03,2.41
2.267645835876465,1.12,-2.06,0.09,2.34
2.277474880218506,1.1,-1.94,-0.3,2.25
2.287655830383301,0.68,-0.81,-1.67,1.97
2.299077033996582,-0.61,-0.94,-1.13,1.59
2.307750940322876,-1.32,-1.39,0.92,2.12
2.319185972213745,-2.02,-0.83,1.42,2.6
2.327907085418701,-3.04,0.29,0.47,3.08
2.3389079570770264,-4.17,1.22,-0.37,4.36
2.349234104156494,-3.63,2.1,0.2,4.19
2.358109951019287,-1.97,1.45,1.29,2.76
2.3680059909820557,-0.51,-0.61,1.68,1.85
2.3782730102539062,0.89,-1.23,1.72,2.29
2.3883938789367676,2.89,2.01,0.3,3.53
2.3996989727020264,2.14,7.4,-9.21,12.0
2.408492088317871,1.66,-0.74,-5.41,5.7
2.4196720123291016,1.94,-4.63,-0.13,5.02
2.428689956665039,1.36,0.19,2.9,3.2
2.4397199153900146,-0.16,1.16,2.04,2.35
2.450653076171875,-0.49,0.21,0.78,0.94
2.459062099456787,0.48,1.25,-0.54,1.44
2.46895694732666,2.63,1.44,-1.28,3.26
2.4790399074554443,3.81,-0.07,-1.45,4.07
2.489197015762329,3.24,-1.46,-0.23,3.56
2.501037120819092,2.14,-1.69,2.57,3.74
2.5094428062438965,-0.06,3.53,-2.12,4.11
2.521121025085449,-2.19,1.21,-3.38,4.2
2.5294299125671387,-1.07,-0.33,-0.33,1.16
2.5394978523254395,-0.26,-0.2,1.07,1.11
2.551182985305786,-0.36,0.5,0.64,0.88
2.559678077697754,-0.48,1.2,1.06,1.67
2.5697829723358154,-1.2,1.33,1.25,2.18
2.5798349380493164,-1.16,2.26,1.85,3.14
2.590039014816284,-0.18,1.97,1.74,2.63
2.6020820140838623,-0.17,1.19,0.9,1.5
2.6102499961853027,-0.48,0.67,0.58,1.0
2.62141489982605,-0.62,-0.01,0.3,0.68
2.6302638053894043,-0.43,-0.35,-0.64,0.84
2.6402299404144287,-0.84,-0.82,-0.89,1.47
2.652247905731201,-0.76,-1.29,-1.83,2.36
2.660749912261963,-0.88,-0.69,-1.78,2.1
2.6707239151000977,-1.15,-0.53,-0.62,1.4
2.6806910037994385,-0.63,-0.85,-0.29,1.09
2.6908340454101562,0.63,-0.48,-2.61,2.72
2.70273494720459,1.93,-1.54,-0.25,2.48
2.7109880447387695,0.85,-2.25,1.41,2.78
2.7242698669433594,1.08,-1.72,0.73,2.15
2.7310609817504883,1.64,-1.09,-0.62,2.06
2.7412049770355225,1.54,-1.82,-0.08,2.38
2.752465009689331,1.07,-1.98,0.92,2.43
2.76137113571167,1.67,-1.65,-0.59,2.42
2.771505832672119,1.83,0.3,-1.14,2.17
2.7814807891845703,0.84,1.17,-0.17,1.45
2.7916340827941895,0.79,0.77,-0.39,1.17
2.802824020385742,-0.03,2.1,-1.84,2.79
2.8118181228637695,-3.82,6.99,-3.34,8.63
2.8245301246643066,-0.72,2.12,4.34,4.88
2.8317699432373047,1.04,0.47,-0.22,1.16
2.841977119445801,0.34,-0.7,-0.73,1.06
2.853266954421997,-1.12,-0.11,-0.15,1.13
2.8621020317077637,-0.55,0.38,-0.93,1.14
2.8722639083862305,0.54,-0.04,0.38,0.66
2.8823060989379883,-0.48,0.19,2.88,2.92
2.8924660682678223,-0.24,0.89,1.96,2.16
2.903887987136841,0.19,1.34,1.14,1.76
2.9129889011383057,0.2,1.53,0.67,1.68
2.9226598739624023,0.6,1.23,0.83,1.6
2.9327549934387207,0.53,0.74,0.95,1.31
2.9428610801696777,0.52,0.87,0.27,1.04
2.9541940689086914,0.53,0.77,-0.15,0.94
2.962918996810913,1.25,1.33,-0.6,1.92
2.973134994506836,1.91,1.47,-0.45,2.45
2.9831838607788086,2.18,1.62,-0.15,2.72
2.993216037750244,2.05,0.96,-0.52,2.32
3.0048108100891113,2.6,1.52,3.21,4.4
3.013463020324707,2.09,2.85,-1.2,3.73
3.023430824279785,0.51,-0.23,1.01,1.15
3.033492088317871,-1.32,-0.53,2.8,3.14
3.04351806640625,-2.74,-4.5,-0.75,5.32
3.055043935775757,-3.45,-5.65,-3.06,7.29
3.064757823944092,-2.86,-3.52,-2.26,5.06
3.0737338066101074,-2.79,-1.69,-0.16,3.26
3.0842790603637695,-1.1,1.4,-0.33,1.81
3.0940299034118652,0.8,0.86,0.37,1.23
3.1054000854492188,1.92,-0.18,0.05,1.92
3.115417003631592,1.43,0.55,-0.06,1.53
3.127070903778076,0.5,0.63,0.22,0.83
3.1345160007476807,0.19,0.26,0.73,0.79
3.1444180011749268,0.24,-0.1,-0.71,0.75
3.1557109355926514,0.38,-0.33,-1.23,1.32
3.1646370887756348,0.41,0.3,-0.21,0.54
3.174715042114258,0.17,0.18,0.01,0.24
3.1845898628234863,-0.28,-0.1,-0.35,0.45
3.194890022277832,-0.63,-0.27,-0.37,0.77
3.2061920166015625,-0.74,-0.3,0.04,0.79
3.2163867950439453,-0.69,-0.24,0.2,0.75
3.229156970977783,-0.52,-0.23,0.08,0.57
3.235072135925293,-0.14,-0.11,0.01,0.17
3.245393991470337,0.2,0.02,-0.22,0.29
3.256667137145996,0.4,0.1,-0.22,0.46
3.265324115753174,0.44,0.22,-0.34,0.59
3.275588035583496,0.42,0.19,-0.63,0.78
3.2855148315429688,0.44,0.13,-0.42,0.62
3.295714855194092,0.4,0.07,-0.06,0.41
3.3072800636291504,0.17,0.14,0.1,0.24
3.322798013687134,-0.04,0.33,0.39,0.51
3.329847812652588,-0.41,-0.19,-0.49,0.66
3.3359270095825195,-0.84,-0.56,-0.59,1.16
3.3460960388183594,-0.88,-0.24,0.44,1.01
3.3575778007507324,-0.67,-0.26,0.22,0.75
3.366119861602783,-0.35,-0.17,-0.1,0.4
3.3763439655303955,-0.1,0.02,-0.26,0.27
3.3864951133728027,0.05,0.08,-0.49,0.49
3.396569013595581,0.09,0.13,-0.43,0.45
3.407999038696289,0.05,0.13,-0.38,0.4
3.4243340492248535,0.05,0.12,-0.34,0.36
3.431623935699463,0.1,0.16,-0.16,0.24
3.4368491172790527,0.33,0.1,0.33,0.47
3.446877956390381,0.73,0.24,0.58,0.96
3.458523988723755,1.15,0.25,0.71,1.37
3.4673309326171875,1.15,0.34,0.75,1.41
3.477235794067383,0.95,0.44,1.05,1.48
3.4871950149536133,0.81,0.29,0.53,1.01
3.4973769187927246,0.8,0.57,0.06,0.98
3.508974075317383,0.37,-0.05,-1.24,1.29
3.523844003677368,-0.04,-0.2,-0.74,0.76
3.5311169624328613,-0.08,0.06,0.23,0.25
3.5376439094543457,-0.11,-0.27,-0.14,0.32
3.547794818878174,-0.06,-0.15,0.01,0.16
3.5592880249023438,-0.11,-0.12,0.14,0.21
3.567862033843994,0.01,0.25,0.82,0.85
3.5780179500579834,-0.32,-0.35,-0.14,0.49
3.588099956512451,-0.47,0.04,0.43,0.63
3.5982229709625244,-0.66,-0.32,-0.47,0.87
3.6097159385681152,-0.64,-0.4,-0.92,1.18
3.6235928535461426,-0.35,-0.15,-0.34,0.51
3.6307358741760254,0.01,-0.05,-0.32,0.32
3.638489007949829,0.27,0.06,-0.37,0.46
3.648521900177002,0.38,0.07,-0.4,0.55
3.659801959991455,0.47,0.45,0.09,0.65
3.6686599254608154,0.13,-0.03,-0.62,0.63
3.6787590980529785,-0.42,-0.28,-0.63,0.8
3.688840866088867,-0.41,-0.04,0.34,0.53
3.698967933654785,-0.04,0.08,0.29,0.3
3.7102949619293213,0.26,0.15,0.05,0.3
3.722860813140869,-0.02,-0.35,-0.83,0.9
3.7293801307678223,0.02,-0.03,-0.13,0.13
3.7392349243164062,0.25,0.29,0.17,0.41
3.7493739128112793,0.12,-0.06,-0.73,0.74
3.760680913925171,-0.34,-0.16,-0.72,0.81
3.7695000171661377,-0.38,0.17,0.09,0.42
3.779604911804199,-0.2,0.2,-0.1,0.3
3.7896370887756348,0.25,0.64,0.22,0.72
3.7998228073120117,0.41,-0.15,-0.74,0.85
3.8111279010772705,1.03,0.13,0.36,1.09
3.8229918479919434,1.21,-0.01,0.11,1.21
3.8298568725585938,0.45,-0.15,-0.28,0.55
3.840181827545166,-0.48,0.06,0.36,0.6
3.85014009475708,-1.51,-0.68,-0.5,1.72
3.8616480827331543,-1.37,-0.44,0.04,1.43
3.870548963546753,-0.68,-0.21,-0.35,0.79
3.880427837371826,0.14,0.32,-0.29,0.45
3.8905599117279053,0.52,0.42,-0.29,0.72
3.9009318351745605,0.43,0.33,-0.08,0.54
3.913341999053955,0.07,-0.08,-0.06,0.12
3.923203945159912,-0.09,-0.26,0.06,0.28
3.9307808876037598,0.16,-0.12,0.33,0.38
3.9408907890319824,0.0,-0.73,-0.5,0.88
3.9511890411376953,-0.16,-0.18,0.2,0.31
3.9623169898986816,-0.45,-0.11,0.37,0.59
3.9712769985198975,-0.5,-0.17,0.21,0.56
3.981167793273926,-0.22,0.0,0.41,0.46
3.9912757873535156,0.12,0.11,0.37,0.4
4.001451015472412,0.07,-0.18,-0.09,0.21
4.014080047607422,-0.01,-0.16,0.25,0.29
4.02340292930603,-0.1,-0.45,0.35,0.57
4.031574010848999,0.02,-0.57,0.32,0.65
4.041821002960205,0.15,-0.47,0.44,0.66
4.051610946655273,0.04,-0.25,0.09,0.26
4.0629448890686035,-0.12,0.04,-0.14,0.18
4.071868896484375,-0.36,0.16,-0.02,0.39
4.082042932510376,-0.63,0.03,-0.05,0.63
4.092146873474121,-0.65,-0.22,-0.18,0.7
4.102039813995361,-0.47,-0.25,0.08,0.53
4.114874839782715,-0.39,-0.24,0.46,0.64
4.1232099533081055,-0.44,-0.28,0.27,0.58
4.132382869720459,-0.39,-0.2,-0.21,0.48
4.142323017120361,-0.27,-0.25,-0.37,0.52
4.152521133422852,0.01,-0.38,-0.38,0.53
4.163847923278809,0.12,-0.02,-0.15,0.19
4.172821998596191,-0.32,-0.13,0.08,0.35
4.182830810546875,-0.94,-0.48,-0.05,1.05
4.192925930023193,-1.19,-0.55,0.05,1.31
4.20297908782959,-1.13,-0.29,0.21,1.18
4.215651988983154,-0.77,-0.06,-0.15,0.78
4.2236340045928955,-0.21,0.05,-0.59,0.62
4.233132839202881,0.18,0.2,-0.66,0.71
4.243320941925049,0.25,0.15,-0.51,0.58
4.253453969955444,0.15,0.02,-0.38,0.4
4.264749050140381,-0.07,-0.16,-0.42,0.45
4.273598909378052,-0.38,-0.3,-0.41,0.63
4.28410005569458,-0.71,-0.31,-0.15,0.78
4.293932914733887,-0.91,-0.22,0.08,0.93
4.304007053375244,-0.85,-0.2,0.18,0.89
4.315408945083618,-0.47,-0.12,0.01,0.48
4.323949813842773,0.15,-0.01,-0.27,0.3
4.334465026855469,0.75,0.11,-0.15,0.77
4.344111919403076,0.93,0.35,0.04,0.99
4.354331016540527,0.69,0.34,-0.37,0.85
4.365623950958252,0.34,0.03,-0.5,0.6
4.3744330406188965,0.09,0.09,-0.2,0.23
4.384679794311523,0.01,0.31,0.01,0.31
4.394484043121338,0.19,0.32,0.07,0.37
4.404837131500244,0.73,0.42,-0.07,0.84
4.41620397567749,1.26,0.81,-0.29,1.52
4.42484188079834,1.31,0.91,-0.39,1.64
4.434685945510864,0.81,0.73,-0.34,1.14
4.444988012313843,0.14,0.4,-0.18,0.46
4.455124855041504,-0.21,0.08,-0.07,0.23
4.466464996337891,-0.15,-0.05,-0.18,0.23
4.47516393661499,0.13,0.11,-0.24,0.29
4.485384941101074,0.29,0.46,-0.42,0.68
4.4953718185424805,0.36,0.72,-0.6,1.0
4.505469799041748,0.39,0.96,-0.57,1.18
4.516865968704224,0.5,1.19,-0.35,1.33
4.525514125823975,0.66,1.39,0.2,1.55
4.535562992095947,1.06,1.56,0.28,1.9
4.545731067657471,1.69,1.59,0.12,2.32
4.555898904800415,2.8,2.05,0.25,3.47
4.5677149295806885,4.42,2.49,0.5,5.09
4.57607889175415,6.05,1.93,-0.83,6.4
4.586214065551758,7.23,1.39,-1.23,7.46
4.596250057220459,7.76,1.35,0.86,7.92
4.606245040893555,6.56,1.25,0.94,6.74
4.623246908187866,4.98,0.44,0.81,5.06
4.626460075378418,3.92,0.28,1.16,4.09
4.636446952819824,3.5,0.23,1.75,3.91
4.646523952484131,3.55,0.01,1.67,3.92
4.656616926193237,3.64,0.35,0.98,3.78
4.668637990951538,4.06,0.56,1.1,4.24
4.6769208908081055,4.57,0.77,1.82,4.97
4.687017917633057,4.71,0.89,1.3,4.96
4.6970789432525635,4.37,0.61,0.87,4.49
4.708491802215576,3.55,0.09,0.89,3.66
4.724701881408691,2.51,-0.56,1.08,2.78
4.727207899093628,1.78,-1.04,1.06,2.31
4.737383842468262,1.58,-1.17,1.03,2.21
4.747504949569702,1.85,-1.02,0.92,2.3
4.757519960403442,1.98,-0.83,0.64,2.24
4.76959490776062,1.88,-0.74,0.38,2.05
4.777728080749512,1.6,-0.66,0.15,1.73
4.78780198097229,1.32,-0.71,-0.04,1.49
4.797770023345947,1.01,-0.87,-0.23,1.35
4.8092827796936035,0.75,-1.07,-0.44,1.37
4.825269937515259,0.58,-1.31,-0.4,1.48
4.828081130981445,0.28,-1.24,-0.5,1.36
4.838174819946289,-0.02,-0.94,-0.45,1.04
4.8481810092926025,-0.23,-0.58,-0.5,0.79
4.8583409786224365,-0.32,-0.22,-0.64,0.74
4.869604110717773,-0.38,-0.05,-0.61,0.72
4.878463983535767,-0.49,0.07,-0.56,0.74
4.888629913330078,-0.48,-0.1,-0.37,0.61
4.8987109661102295,-0.4,-0.19,-0.06,0.44
4.910080909729004,-0.22,-0.14,-0.11,0.28
4.924956798553467,-0.05,-0.11,-0.36,0.37
4.928972005844116,0.04,-0.13,-0.48,0.49
4.9390130043029785,-0.21,-0.08,-0.6,0.64
4.94910192489624,-0.63,0.03,-0.73,0.96
4.959151983261108,-0.95,0.13,-0.85,1.28
4.970612049102783,-1.11,0.21,-0.88,1.43
4.979272842407227,-1.14,0.14,-0.91,1.46
4.989360809326172,-1.2,0.13,-0.9,1.5
4.999435901641846,-1.24,0.19,-0.72,1.44
5.010702133178711,-1.16,0.14,-0.52,1.27
5.024832010269165,-1.25,0.18,-0.54,1.37
5.029712915420532,-1.44,0.26,-0.53,1.55
5.039848804473877,-1.64,0.36,-0.54,1.76
5.050023078918457,-1.81,0.38,-0.55,1.92
5.059973955154419,-1.95,0.41,-0.63,2.08
5.071652889251709,-1.95,0.3,-0.58,2.05
5.080187797546387,-1.99,0.08,-0.66,2.09
5.090260028839111,-2.2,-0.22,-0.7,2.31
5.100274085998535,-2.46,-0.52,-0.51,2.56
5.110458850860596,-2.69,-0.62,-0.39,2.78
5.124731063842773,-2.79,-0.62,-0.42,2.88
5.130551815032959,-2.76,-0.47,-0.34,2.82
5.140470027923584,-2.73,-0.33,-0.2,2.75
5.151000022888184,-2.69,-0.23,-0.21,2.7
5.16076397895813,-2.59,-0.11,-0.22,2.6
5.172076940536499,-2.53,-0.1,-0.1,2.53
5.180988788604736,-2.61,-0.3,-0.18,2.63
5.191018104553223,-2.93,-0.57,-0.12,2.98
5.201308965682983,-3.38,-0.8,-0.12,3.47
5.211241960525513,-3.59,-1.11,-0.08,3.75
5.224963903427124,-3.58,-1.15,0.09,3.76
5.231338024139404,-3.42,-1.13,0.15,3.6
5.241386890411377,-3.24,-1.05,-0.15,3.4
5.251332998275757,-3.12,-0.89,-0.3,3.25
5.261579990386963,-3.12,-0.74,-0.36,3.22
5.273010969161987,-3.24,-0.79,-0.34,3.35
5.281826972961426,-3.5,-0.94,-0.51,3.65
5.291810989379883,-3.6,-1.02,-0.43,3.76
5.30191707611084,-3.69,-1.09,-0.82,3.93
5.3120739459991455,-2.46,-0.8,-1.38,2.93
5.324822902679443,3.35,-2.45,0.06,4.15
5.332086086273193,10.66,5.02,2.72,12.09
5.342156887054443,19.43,20.15,5.41,28.5
5.352297782897949,9.91,-2.52,0.08,10.22
5.362401008605957,4.18,-1.53,-2.55,5.12
5.373907089233398,-0.43,2.99,1.31,3.29
5.382637977600098,-4.43,1.21,5.7,7.31
5.3926310539245605,-6.07,1.19,-0.94,6.25
5.4026939868927,-7.63,0.63,0.86,7.7
5.4127888679504395,-8.04,1.94,-1.46,8.39
5.424649953842163,-8.4,-2.88,-3.34,9.48
5.433156967163086,-5.69,-2.82,1.84,6.61
5.442990779876709,-3.44,-1.12,-1.04,3.76
5.453030109405518,-1.16,-1.06,-0.96,1.84
5.463207960128784,0.47,-0.2,-2.73,2.77
5.474520921707153,1.53,0.18,-2.35,2.8
5.483430862426758,1.65,0.62,-0.18,1.77
5.493466854095459,0.79,0.57,0.02,0.97
5.504612922668457,-0.39,-0.28,-0.24,0.53
5.513675928115845,-1.42,-0.56,0.43,1.58
5.524677991867065,-1.83,-0.56,0.43,1.96
5.5341269969940186,-1.44,-0.65,-0.1,1.58
5.543852806091309,-0.64,-0.47,-0.57,0.97
5.553924083709717,-0.03,-0.3,-1.32,1.35
5.564029932022095,0.39,-0.06,-1.35,1.4
5.575555801391602,0.77,-0.01,-1.07,1.31
5.584628105163574,0.88,0.24,-0.37,0.98
5.59419584274292,0.89,0.34,0.07,0.95
5.605515003204346,0.3,-0.24,-1.29,1.34
5.614476919174194,-0.21,-0.25,-0.3,0.44
5.625454902648926,-0.3,-0.14,0.79,0.85
5.634660959243774,-0.1,0.04,0.62,0.62
5.644597053527832,-0.22,-0.4,-0.82,0.93
5.654788017272949,-0.44,-0.18,0.24,0.53
5.664801120758057,-0.42,-0.09,0.73,0.84
5.676145076751709,0.09,0.11,0.2,0.24
5.684866905212402,0.24,-0.1,-0.95,0.98
5.695111989974976,0.29,-0.07,-0.9,0.94
5.706043004989624,0.72,0.15,0.23,0.77
5.715192794799805,0.56,0.21,-0.27,0.65
5.726603984832764,0.42,0.14,-0.43,0.61
5.735476970672607,0.73,0.3,0.5,0.93
5.7454400062561035,0.41,-0.1,-0.73,0.84
5.755642890930176,0.19,0.07,-0.04,0.2
5.7655768394470215,0.23,0.1,0.84,0.87
5.777125835418701,0.29,0.29,0.22,0.46
5.785959959030151,0.31,0.27,0.1,0.42
5.795804977416992,0.19,-0.13,-0.59,0.63
5.807020902633667,0.23,0.03,-0.31,0.38
5.8160810470581055,0.17,0.05,0.03,0.17
5.827281951904297,0.2,0.09,0.4,0.45
5.83616304397583,0.24,0.31,1.07,1.13
5.846181869506836,-0.03,-0.03,0.12,0.12
5.856353998184204,-0.09,-0.03,-0.43,0.44
5.866465091705322,0.49,0.2,0.45,0.69
5.877968788146973,0.25,-0.26,-1.13,1.18
5.886670112609863,0.29,0.02,-1.15,1.18
5.89674711227417,0.7,0.28,-0.17,0.77
5.906877040863037,0.91,0.88,0.19,1.28
5.916939973831177,0.92,0.87,-0.09,1.26
5.928231954574585,0.01,0.06,-0.78,0.78
5.937129020690918,-0.97,-0.39,0.11,1.05
5.947206020355225,-1.23,-0.57,0.78,1.56
5.957303047180176,-1.21,-0.93,-0.42,1.58
5.9677770137786865,-1.45,-1.39,-1.14,2.3
5.978823900222778,-1.4,-0.98,0.18,1.71
5.987541913986206,-1.14,-0.54,0.4,1.32
5.997600078582764,-0.86,-0.1,-0.47,0.98
6.0077149868011475,-0.83,0.2,-0.99,1.3
6.024372100830078,0.45,0.74,-0.15,0.87
6.029347896575928,1.85,1.45,1.15,2.61
6.037994861602783,1.8,2.03,1.25,2.98
6.0478620529174805,1.55,3.11,1.08,3.63
6.058110952377319,1.1,2.56,-0.32,2.8
6.068084955215454,0.96,2.52,-0.96,2.86
6.079586029052734,0.82,3.33,-1.15,3.61
6.088314056396484,2.16,4.63,-0.06,5.1
6.098444938659668,2.99,6.29,0.57,6.98
6.108490943908691,3.59,6.69,0.52,7.61
6.12421989440918,3.65,5.74,-0.76,6.84
6.129945993423462,3.62,4.85,-2.3,6.47
6.138792991638184,3.27,4.19,-1.14,5.43
6.148643970489502,3.53,3.89,0.63,5.29
6.158833980560303,5.09,3.89,2.71,6.95
6.168853998184204,7.21,3.1,4.76,9.17
6.180426120758057,8.04,2.29,4.72,9.6
6.18917989730835,7.92,2.1,3.32,8.84
6.199191093444824,8.44,2.08,4.21,9.65
6.209319114685059,8.58,1.63,5.87,10.52
6.223733901977539,7.67,1.08,6.03,9.81
6.230576038360596,6.43,0.8,5.3,8.37
6.239532947540283,5.46,0.71,5.09,7.49
6.249547958374023,4.66,0.79,4.91,6.81
6.2597010135650635,4.02,0.76,4.44,6.03
6.269728899002075,3.84,0.82,4.5,5.97
6.281199932098389,4.06,1.09,4.68,6.29
6.289886951446533,4.61,1.45,4.6,6.67
6.306346893310547,5.01,1.44,4.01,6.57
6.3099589347839355,4.99,1.11,3.44,6.16
6.320104122161865,4.57,0.76,3.4,5.74
6.331360816955566,4.03,0.47,3.42,5.3
6.340286016464233,3.53,0.56,3.09,4.72
6.350297927856445,3.14,0.84,2.61,4.16
6.360543966293335,3.06,0.97,2.48,4.05
6.3705549240112305,2.78,1.34,2.12,3.74
6.382157802581787,2.16,1.35,1.29,2.85
6.390830039978027,1.16,1.07,0.43,1.63
6.407968044281006,-0.06,0.97,-0.01,0.97
6.410815000534058,-0.91,0.77,0.37,1.24
6.420979022979736,-0.89,0.44,0.89,1.33
6.432261943817139,-0.49,0.45,0.52,0.84
6.441235065460205,-0.14,0.52,-0.19,0.57
6.4514617919921875,0.16,0.61,-0.48,0.79
6.461342811584473,0.17,0.97,-0.48,1.09
6.471395969390869,-0.04,1.59,-0.32,1.62
6.483180999755859,-0.29,2.19,-0.52,2.26
6.491600036621094,-0.67,2.94,-0.93,3.15
6.502943992614746,-1.16,4.01,-1.47,4.42
6.511749982833862,-1.42,4.34,-2.22,5.07
6.5241827964782715,-1.72,4.17,-3.06,5.45
6.533026933670044,-2.31,4.5,-4.24,6.6
6.541980981826782,-2.85,4.55,-5.45,7.65
6.551723957061768,-3.22,3.88,-6.86,8.51
6.562148094177246,-3.59,2.78,-8.35,9.5
6.572146892547607,-4.18,1.49,-9.3,10.3
6.583676815032959,-4.93,0.03,-9.73,10.9
6.592366933822632,-5.96,-1.73,-9.51,11.35
6.603270053863525,-7.36,-3.53,-7.91,11.36
6.612438917160034,-9.71,-5.28,-2.93,11.43
6.623482942581177,-12.32,-6.34,1.53,13.93
6.633775949478149,-12.94,-5.81,-2.03,14.32
6.642802953720093,-12.35,-5.18,-4.8,14.22
6.652755975723267,-11.25,-4.86,-4.06,12.9
6.662798881530762,-8.86,-3.64,-3.94,10.35
6.672992944717407,-7.03,-2.32,-3.01,7.99
6.684844017028809,-5.58,-1.74,-2.28,6.27
6.69313383102417,-4.43,-1.61,-3.2,5.69
6.706730842590332,-2.29,0.16,-1.05,2.52
6.713174819946289,1.5,1.5,4.37,4.85
6.723312854766846,2.92,0.23,-0.7,3.01
6.735066890716553,0.2,-1.92,2.02,2.79
6.7436089515686035,-0.02,0.35,10.42,10.42
6.753638982772827,0.17,7.24,4.23,8.38
6.7639219760894775,0.91,12.62,-2.76,12.95
6.773899078369141,3.09,13.19,-2.66,13.8
6.78564190864563,-0.61,2.6,-0.05,2.67
6.79399299621582,-3.1,-0.75,0.78,3.28
6.808445930480957,-3.37,1.76,-0.11,3.8
6.814049005508423,-3.03,2.86,-6.12,7.4
6.824275970458984,-4.06,-3.14,-10.17,11.39
6.836028099060059,-4.5,-4.83,-3.17,7.32
6.844369888305664,-4.4,-1.79,2.53,5.38
6.854386806488037,-5.0,-1.08,0.82,5.18
6.86457896232605,-4.89,-1.79,-1.74,5.49
6.874740123748779,-4.05,-2.19,0.52,4.63
6.886398792266846,-2.87,-0.97,0.33,3.04
6.894820928573608,-1.01,-0.28,-0.13,1.05
6.904949903488159,0.72,0.16,-0.67,0.99
6.9149861335754395,1.82,0.77,-0.54,2.04
6.92502498626709,1.93,0.76,-1.02,2.31
6.936369895935059,1.49,0.26,-1.4,2.06
6.945596933364868,0.82,0.05,-0.17,0.83
6.9553070068359375,-0.24,-0.25,-0.2,0.4
6.965428829193115,-0.94,-0.6,-0.45,1.2
6.975546836853027,-0.84,-0.39,0.52,1.06
6.986987113952637,-0.21,-0.05,0.56,0.6
6.99572491645813,0.36,0.24,0.33,0.54
7.00573205947876,0.44,0.21,-0.25,0.54
7.015769004821777,0.57,-0.04,-1.03,1.17
7.025886058807373,0.56,0.1,-0.83,1.0
7.0372889041900635,0.41,0.0,-0.34,0.53
7.046104907989502,-0.09,-0.24,0.72,0.76
7.056201934814453,-0.58,-0.16,0.76,0.96
7.066179990768433,-0.34,0.08,0.49,0.6
7.076282978057861,-0.33,0.02,-0.13,0.35
7.087772846221924,-0.09,-0.16,-0.7,0.72
7.097676992416382,0.45,0.05,-0.52,0.68
7.111219882965088,0.53,0.22,-0.76,0.95
7.116497993469238,0.84,0.26,-0.58,1.05
7.12679386138916,1.01,0.4,0.13,1.09
7.138152122497559,0.73,0.36,0.25,0.85
7.146964073181152,0.31,0.22,0.18,0.42
7.156975984573364,0.08,0.04,0.48,0.48
7.1670308113098145,-0.15,-0.04,0.32,0.35
7.177237033843994,-0.21,-0.11,-0.16,0.28
7.188849925994873,-0.78,-0.14,-0.36,0.87
7.198649883270264,-0.16,-0.39,-0.42,0.59
7.212755918502808,0.01,-0.2,-0.5,0.53
7.217750072479248,-0.12,-0.09,-0.04,0.15
7.227730989456177,-0.18,-0.22,-0.03,0.28
7.239101886749268,-0.04,0.02,0.93,0.93
7.247716903686523,-0.16,0.12,1.39,1.4
7.25770378112793,-0.52,-0.01,0.32,0.61
7.268121957778931,-0.51,-0.12,-0.66,0.84
7.277957916259766,-0.53,-0.37,-1.16,1.32
7.289386987686157,-0.13,-0.3,-0.8,0.86
7.299341917037964,0.06,0.05,-0.42,0.42
7.312873840332031,0.23,0.14,-0.5,0.56
7.318208932876587,0.3,0.19,-0.49,0.6
7.32830810546875,0.19,0.1,-0.23,0.31
7.339854001998901,-0.03,-0.03,0.05,0.06
7.34843111038208,-0.16,0.12,0.08,0.21
7.358469009399414,-0.2,0.42,-0.52,0.69
7.368452072143555,-0.01,0.56,-1.39,1.49
7.378695011138916,0.37,0.86,-1.36,1.65
7.390050888061523,0.88,1.4,-1.03,1.94
7.400285005569458,1.24,2.38,-0.94,2.84
7.413625955581665,1.06,3.22,-0.68,3.45
7.41889500617981,0.48,4.35,-0.95,4.47
7.429059982299805,0.52,3.9,-0.9,4.03
7.440438985824585,1.37,1.33,1.69,2.54
7.4492268562316895,2.35,1.22,3.82,4.64
7.459325790405273,2.23,4.27,1.52,5.05
7.469427108764648,2.25,5.27,0.77,5.78
7.4794769287109375,2.93,5.49,1.55,6.41
7.490937948226929,3.25,6.57,0.82,7.37
7.499660015106201,2.85,5.9,-1.69,6.76
7.5131049156188965,2.52,4.37,-4.42,6.7
7.519747972488403,2.41,4.78,-3.24,6.25
7.529874801635742,3.14,5.21,-2.02,6.4
7.541177988052368,5.47,3.07,1.87,6.54
7.550151824951172,8.43,3.3,6.59,11.19
7.56009578704834,7.79,2.24,2.6,8.51
7.570313930511475,8.13,0.82,1.22,8.26
7.580316066741943,9.47,0.8,3.5,10.12
7.591796875,10.15,1.64,3.68,10.92
7.600462913513184,10.1,2.44,3.02,10.82
7.61336612701416,8.41,2.25,3.13,9.25
7.6205949783325195,6.35,1.66,3.61,7.49
7.6308019161224365,5.16,0.94,3.53,6.32
7.641966819763184,4.57,0.58,2.96,5.47
7.651381015777588,4.39,0.66,2.27,4.98
7.660919904708862,4.49,0.82,2.1,5.02
7.671117782592773,4.65,1.0,2.4,5.32
7.681133985519409,4.91,1.16,2.63,5.68
7.6925249099731445,5.12,1.22,2.82,5.97
7.707611083984375,5.06,1.37,2.73,5.91
7.714071989059448,4.79,1.71,2.57,5.69
7.721460819244385,4.28,1.94,2.24,5.2
7.731536865234375,3.38,1.99,1.47,4.18
7.7428507804870605,1.93,1.75,0.7,2.69
7.751625061035156,0.38,1.41,0.64,1.59
7.761729001998901,-0.3,0.96,1.09,1.48
7.771991014480591,0.14,0.67,1.36,1.52
7.781941890716553,0.81,0.76,0.82,1.38
7.793240070343018,1.17,1.02,0.19,1.56
7.80701208114624,1.37,1.13,0.03,1.77
7.813440799713135,1.3,1.42,-0.09,1.92
7.822237014770508,1.05,1.74,-0.31,2.05
7.832327842712402,0.74,1.93,-0.31,2.09
7.843683958053589,0.34,2.15,-0.32,2.2
7.852536916732788,-0.16,2.51,-0.65,2.59
7.862538814544678,-0.76,2.93,-1.19,3.25
7.872718811035156,-1.27,2.95,-1.83,3.69
7.882775783538818,-1.7,2.74,-2.21,3.9
7.895349025726318,-2.32,2.88,-2.43,4.42
7.907322883605957,-3.04,3.0,-3.11,5.28
7.913780927658081,-3.56,2.87,-3.38,5.68
7.923050880432129,-4.05,2.93,-3.5,6.1
7.933260917663574,-4.79,2.3,-4.27,6.81
7.944498062133789,-5.6,0.71,-4.52,7.23
7.9534010887146,-6.84,-0.72,-3.1,7.54
7.96331787109375,-8.21,-1.85,-1.09,8.48
7.973541975021362,-8.92,-2.61,-0.78,9.32
7.983794927597046,-8.85,-2.98,-1.92,9.53
7.9962968826293945,-8.46,-2.81,-2.84,9.35
8.007565975189209,-8.25,-2.27,-3.21,9.13
8.014256954193115,-7.91,-2.05,-3.04,8.71
8.023921012878418,-7.16,-2.09,-2.9,8.0
8.033931970596313,-6.68,-1.84,-2.95,7.53
8.045261859893799,-6.55,-1.24,-2.35,7.06
8.054234027862549,-6.53,-1.12,-1.28,6.74
8.064241886138916,-6.72,-1.7,-0.96,6.99
8.074399948120117,-7.13,-2.48,-0.97,7.61
8.084951877593994,-7.31,-3.04,-0.55,7.93
8.097207069396973,-7.19,-3.03,-0.29,7.8
8.10793399810791,-6.63,-2.53,-1.58,7.27
8.11478590965271,-4.35,-1.48,-1.39,4.8
8.124781131744385,-2.21,-2.94,-3.3,4.94
8.134897947311401,-0.79,-0.28,3.74,3.83
8.146209955215454,1.63,4.58,9.0,10.22
8.155019998550415,5.76,15.02,6.84,17.48
8.165103912353516,11.32,23.03,1.08,25.68
8.175222873687744,3.95,1.22,-4.58,6.16
8.185267925262451,-0.83,-0.72,-2.34,2.58
8.197732925415039,-4.38,1.68,1.84,5.03
8.207695960998535,-5.24,2.58,1.69,6.08
8.215425968170166,-4.09,1.97,-4.72,6.54
8.225474834442139,-4.63,-3.65,-10.67,12.19
8.23546290397644,-5.37,-5.35,-9.89,12.46
8.246850967407227,-6.62,-4.28,-0.79,7.92
8.255870819091797,-6.7,-2.66,4.46,8.47
8.265736103057861,-7.13,-2.52,-3.9,8.5
8.27603006362915,-5.98,-3.27,-0.87,6.87
8.286037921905518,-4.32,-1.8,-0.15,4.68
8.297435998916626,-1.71,-0.43,1.15,2.1
8.308053016662598,0.49,0.28,0.47,0.73
8.316220998764038,1.69,0.74,0.0,1.84
8.326271057128906,2.13,0.88,0.28,2.32
8.336434841156006,1.81,0.73,0.06,1.95
8.347800970077515,1.41,0.42,-0.39,1.52
8.356741905212402,0.77,0.0,-1.45,1.64
8.366719007492065,-0.11,-0.44,-1.54,1.6
8.376879930496216,-0.7,-0.57,-0.5,1.03
8.387095928192139,-0.89,-0.39,0.48,1.08
8.398388862609863,-0.65,-0.18,0.69,0.96
8.409185886383057,-0.01,0.02,0.55,0.55
8.417062997817993,0.42,0.12,0.3,0.52
8.427144050598145,0.1,0.16,-0.18,0.26
8.437309980392456,0.25,0.01,-0.38,0.45
8.448698997497559,0.75,0.3,-0.1,0.81
8.457572937011719,0.77,0.12,-0.63,1.0
8.467950820922852,0.85,0.36,0.18,0.94
8.477696895599365,0.58,0.27,0.2,0.67
8.4878089427948,0.39,0.16,0.44,0.6
8.499234914779663,0.25,0.15,0.78,0.83
8.508989810943604,0.02,0.08,0.48,0.48
8.518301010131836,-0.73,0.04,-0.19,0.75
8.527921915054321,-0.39,-0.54,-0.64,0.92
8.538141012191772,0.2,-0.28,-0.07,0.35
8.549417972564697,-0.04,0.06,-0.28,0.28
8.558313846588135,0.03,0.07,-0.2,0.21
8.56825304031372,0.2,0.02,0.02,0.2
8.57845687866211,0.1,0.01,-0.06,0.11
8.58847188949585,0.14,0.05,-0.06,0.16
8.60011911392212,0.11,0.08,-0.15,0.2
8.609079837799072,0.16,0.08,-0.4,0.43
8.6184720993042,0.18,-0.04,-0.27,0.32
8.628707885742188,0.02,0.0,0.2,0.2
8.638932943344116,-0.19,-0.05,0.2,0.28
8.650332927703857,-0.37,-0.17,-0.09,0.41
8.659037113189697,-0.08,0.21,0.23,0.32
8.669158935546875,-0.31,-0.37,-0.56,0.73
8.679213047027588,-0.74,-0.22,-0.38,0.86
8.69053602218628,-0.31,-0.03,0.42,0.52
8.707305908203125,-0.42,0.0,0.1,0.43
8.709453105926514,-0.4,-0.05,-0.43,0.58
8.719558000564575,-0.22,0.1,-0.56,0.6
8.729536056518555,0.02,0.35,-0.67,0.75
8.739800930023193,0.55,0.65,-0.88,1.22
8.751425981521606,0.79,0.9,-0.82,1.45
8.7598237991333,0.74,1.18,-0.54,1.49
8.76996397972107,0.58,1.45,-0.41,1.61
8.78001093864441,0.42,1.72,-0.82,1.95
8.791340827941895,0.53,2.3,-1.08,2.59
8.807990074157715,0.85,3.19,-0.59,3.35
8.810065984725952,1.34,4.01,0.12,4.22
8.820405960083008,1.9,5.44,-0.27,5.76
8.830384969711304,3.17,7.38,-0.13,8.03
8.840592861175537,4.33,7.45,1.01,8.67
8.852281093597412,4.58,7.19,2.83,8.98
8.860744953155518,3.61,8.25,3.54,9.67
8.870737075805664,3.05,8.77,1.94,9.48
8.880892992019653,2.92,7.74,-0.12,8.27
8.8922700881958,2.85,7.52,-0.64,8.06
8.909648895263672,2.75,8.19,-1.38,8.74
8.911777019500732,3.14,7.22,-1.87,8.09
8.921221017837524,3.89,6.15,-1.21,7.37
8.931248903274536,4.15,4.59,-1.59,6.38
8.941442012786865,4.23,1.35,-2.21,4.95
8.952975988388062,6.57,0.12,2.91,7.18
8.961637020111084,8.11,0.99,6.21,10.26
8.971622943878174,6.58,0.55,1.8,6.84
8.981614112854004,7.77,1.43,2.12,8.17
8.99311113357544,9.31,1.84,4.06,10.32
9.009846925735474,9.11,1.39,3.34,9.8
9.012069940567017,8.33,0.71,2.65,8.77
9.022182941436768,7.33,0.65,2.78,7.86
9.03199291229248,6.38,0.85,2.96,7.08
9.042212963104248,5.4,0.61,2.94,6.17
9.053380966186523,4.53,0.4,2.9,5.39
9.062366962432861,3.98,0.11,3.0,4.98
9.072376012802124,3.79,-0.18,3.23,4.98
9.082513809204102,3.85,-0.2,3.2,5.01
9.092578887939453,3.97,-0.16,3.01,4.98
9.109624862670898,4.13,0.01,3.03,5.12
9.112618923187256,4.12,0.02,2.82,4.99
9.122783899307251,3.97,-0.07,2.44,4.66
9.13277006149292,3.61,-0.14,2.14,4.19
9.142952919006348,3.12,-0.17,1.95,3.68
9.15436601638794,2.61,0.06,1.65,3.08
9.163105010986328,1.91,0.52,1.18,2.3
9.173201084136963,0.87,0.85,0.82,1.46
9.183377981185913,-0.2,1.08,0.88,1.4
9.193444967269897,-0.83,1.29,0.98,1.82
9.209972858428955,-0.89,1.46,0.72,1.85
9.213461875915527,-0.69,1.73,0.13,1.86
9.223639011383057,-0.67,2.04,-0.2,2.15
9.233662128448486,-0.86,2.31,-0.4,2.49
9.24387788772583,-1.22,2.67,-0.76,3.03
9.255509853363037,-1.67,2.9,-0.88,3.46
9.264198780059814,-2.05,3.09,-0.61,3.75
9.274025917053223,-2.45,3.45,-0.89,4.32
9.284557819366455,-2.8,3.9,-1.83,5.13
9.29429292678833,-3.19,4.63,-2.66,6.22
9.30949878692627,-3.68,5.16,-2.59,6.84
9.314268112182617,-4.56,4.86,-2.77,7.21
9.324427127838135,-5.89,3.66,-3.99,8.0
9.334933996200562,-6.91,1.79,-3.83,8.1
9.344614028930664,-8.08,0.14,-2.24,8.38
9.356038093566895,-8.83,-0.93,-1.76,9.05
9.364747047424316,-8.83,-1.58,-2.39,9.28
9.374764919281006,-8.59,-1.91,-2.83,9.24
9.385087013244629,-8.57,-2.06,-3.04,9.32
9.394980907440186,-8.76,-2.4,-3.08,9.59
9.409817934036255,-9.18,-2.82,-2.68,9.97
9.415059089660645,-9.82,-3.18,-2.16,10.54
9.425374984741211,-9.92,-3.38,-2.09,10.68
9.435113906860352,-8.83,-3.06,-2.14,9.58
9.445414066314697,-6.78,-1.14,-0.79,6.92
9.456647872924805,-3.24,-0.13,0.39,3.26
9.465510845184326,-1.56,-0.22,-4.5,4.76
9.475611925125122,-2.63,-2.15,-4.35,5.51
9.48672890663147,-6.05,-4.09,2.4,7.68
9.495809078216553,-6.59,-0.03,9.84,11.84
9.509881973266602,-2.08,7.4,7.0,10.39
9.515970945358276,2.11,10.44,0.03,10.65
9.525954008102417,3.25,12.46,-2.49,13.11
9.536139965057373,1.33,6.07,-2.23,6.6
9.546165943145752,-1.26,0.65,-0.38,1.46
9.557622909545898,-2.1,0.58,0.14,2.18
9.566330909729004,-1.2,4.19,-1.89,4.75
9.576466083526611,-1.43,0.3,-11.53,11.62
9.587831020355225,-2.75,-5.18,-12.49,13.79
9.596648931503296,-6.1,-4.11,-2.78,7.86
9.609551906585693,-10.38,-4.45,10.01,15.09
9.61682391166687,-10.64,-3.9,-1.17,11.39
9.626895904541016,-8.37,-4.5,-2.05,9.72
9.636976957321167,-5.62,-2.94,-0.6,6.37
9.647095918655396,-1.5,-0.34,-0.28,1.56
9.65848684310913,2.08,0.76,-0.49,2.26
9.667243957519531,3.68,1.38,-1.68,4.27
9.677341938018799,3.98,1.55,-1.06,4.4
9.688381910324097,2.7,1.12,-0.57,2.97
9.697435855865479,0.28,0.12,-0.52,0.6
9.709498882293701,-1.43,-0.69,-0.13,1.59
9.717981815338135,-2.05,-0.86,-0.25,2.23
9.727677822113037,-1.54,-0.74,-0.49,1.77
9.737791061401367,-0.49,-0.27,-0.24,0.6
9.747809886932373,0.29,0.08,-0.02,0.3
9.759101867675781,0.64,0.27,0.14,0.7
9.768448829650879,0.78,0.34,0.3,0.9
9.778055906295776,0.59,0.28,0.1,0.66
9.789089918136597,0.4,0.13,-0.06,0.42
9.798178911209106,0.37,0.16,-0.47,0.61
9.809301853179932,0.36,0.12,-0.47,0.6
9.818182945251465,0.35,0.12,-0.04,0.37
9.8284010887146,0.22,0.11,0.13,0.27
9.838468074798584,0.1,0.02,0.06,0.11
9.848572015762329,-0.2,-0.04,0.15,0.25
9.859930992126465,0.17,0.08,0.46,0.49
9.868659019470215,0.36,0.39,0.04,0.53
9.878818035125732,0.59,0.31,-0.41,0.78
9.8906569480896,0.82,0.33,0.1,0.88
9.898985862731934,0.65,0.32,0.24,0.76
9.910171031951904,0.36,0.13,0.06,0.38
9.919129848480225,0.07,-0.03,0.1,0.12
9.929350852966309,-0.07,-0.05,0.13,0.15
9.939388990402222,0.06,0.17,0.17,0.24
9.949419021606445,0.25,0.37,0.27,0.52
9.960855960845947,-0.17,-0.23,-1.0,1.04
9.969640016555786,0.35,-0.03,0.0,0.35
9.979576110839844,0.29,0.13,0.22,0.38
9.99184799194336,0.1,0.13,-0.48,0.5
9.99975299835205,0.2,0.3,-0.5,0.61
10.011132955551147,0.42,0.45,-0.27,0.67
10.020011901855469,0.6,0.53,-0.1,0.8
10.03001093864441,0.63,0.49,-0.06,0.8
10.040138006210327,0.49,0.6,0.07,0.77
10.050262928009033,0.31,0.6,-0.12,0.68
10.061505794525146,0.12,0.58,-0.43,0.73
10.070502996444702,-0.01,0.67,-0.46,0.81
10.080497980117798,0.14,0.78,-0.18,0.81
10.090667963027954,0.29,1.06,-0.03,1.09
10.100641965866089,0.12,1.32,0.26,1.35
10.112741947174072,-0.58,1.0,0.09,1.15
10.120867013931274,-0.75,0.97,0.08,1.22
10.130866050720215,-0.61,1.41,0.71,1.69
10.141047954559326,-0.7,2.44,1.01,2.73
10.151425838470459,-0.39,4.02,1.28,4.23
10.16234302520752,-0.69,5.86,0.09,5.9
10.171396017074585,-0.2,8.69,-0.78,8.72
10.181283950805664,2.26,10.88,0.02,11.11
10.191475868225098,4.6,10.63,-0.24,11.58
10.208624839782715,5.7,11.09,-1.52,12.56
10.213035106658936,5.83,12.17,-2.06,13.65
10.22189998626709,5.6,13.04,0.0,14.19
10.231718063354492,6.47,12.7,1.5,14.33
10.24181079864502,8.47,10.77,0.69,13.71
10.251770973205566,9.1,9.21,-1.66,13.05
10.263322830200195,7.82,7.44,-2.95,11.18
10.272173881530762,6.68,5.1,-2.39,8.73
10.2832670211792,5.94,0.79,-2.39,6.45
10.292261123657227,5.25,-4.09,-1.55,6.83
10.302248001098633,5.48,-4.6,7.33,10.24
10.31352710723877,2.65,-3.54,4.61,6.38
10.32245397567749,3.35,-2.79,1.31,4.55
10.332665920257568,7.51,-1.38,3.88,8.56
10.34273386001587,9.63,-0.25,3.5,10.24
10.352829933166504,10.53,0.05,1.79,10.68
10.364272117614746,10.58,0.03,1.0,10.62
10.373029947280884,9.75,-0.04,1.34,9.84
10.390607833862305,8.17,-0.04,2.18,8.45
10.393002033233643,6.57,0.11,2.56,7.05
10.40315580368042,5.42,-0.09,2.61,6.01
10.41454291343689,4.55,-0.35,2.73,5.31
10.423301935195923,3.85,-0.25,2.8,4.76
10.43333387374878,3.33,-0.08,2.81,4.35
10.443504810333252,3.08,-0.05,2.72,4.1
10.453649997711182,3.11,-0.08,2.54,4.01
10.465014934539795,3.18,-0.04,2.31,3.93
10.473830938339233,3.07,0.15,1.85,3.58
10.491754055023193,2.85,0.5,1.38,3.2
10.493835926055908,2.43,0.91,1.07,2.8
10.503973960876465,1.89,1.38,0.88,2.5
10.515285015106201,1.31,1.8,0.79,2.36
10.524316787719727,0.65,2.19,0.82,2.42
10.534615993499756,0.0,2.41,0.7,2.5
10.544389963150024,-0.57,2.56,0.35,2.64
10.55445384979248,-1.14,2.75,-0.12,2.97
10.565721035003662,-1.69,2.98,-0.71,3.49
10.574689865112305,-2.38,3.25,-0.98,4.14
10.592061042785645,-3.31,3.78,-0.92,5.1
10.594666004180908,-4.08,4.27,-0.93,5.97
10.604827880859375,-4.43,4.5,-1.42,6.47
10.616188049316406,-4.62,4.56,-2.12,6.82
10.625044822692871,-4.72,4.35,-2.66,6.94
10.63503098487854,-4.97,4.02,-3.17,7.13
10.645051002502441,-5.44,3.93,-3.46,7.55
10.655245780944824,-5.94,3.43,-3.83,7.85
10.666819095611572,-6.61,2.67,-4.33,8.34
10.675427913665771,-7.52,1.53,-3.99,8.64
10.691009998321533,-8.51,0.18,-3.27,9.11
10.695466995239258,-9.44,-1.29,-2.99,9.98
10.705518007278442,-10.07,-2.7,-2.87,10.81
10.7169189453125,-10.28,-3.55,-2.72,11.21
10.725634098052979,-10.27,-3.89,-2.87,11.35
10.735732078552246,-9.75,-3.92,-3.18,10.97
10.745800971984863,-8.45,-3.58,-2.81,9.59
10.756056785583496,-7.41,-2.99,-1.95,8.22
10.767252922058105,-6.7,-2.33,-1.6,7.27
10.776198863983154,-6.13,-1.87,-1.16,6.51
10.79079294204712,-5.74,-1.86,-0.51,6.05
10.79626989364624,-5.73,-2.33,-0.41,6.19
10.806282997131348,-5.9,-2.94,-0.24,6.59
10.818084001541138,-5.13,-2.27,-0.06,5.61
10.826549053192139,-2.18,-1.34,-0.27,2.57
10.836647987365723,-0.42,-3.45,-3.92,5.23
10.846717834472656,-0.31,-1.77,3.9,4.29
10.85682487487793,-0.54,2.86,6.96,7.54
10.86864185333252,-1.08,7.9,0.15,7.97
10.877149105072021,3.41,16.21,1.23,16.61
10.892049789428711,7.5,17.45,0.41,18.99
10.897089958190918,1.71,1.55,-1.25,2.62
10.907238006591797,-1.45,0.11,-2.05,2.51
10.918988943099976,-2.62,2.52,0.13,3.63
10.927443981170654,-2.08,3.42,-2.93,4.96
10.937521934509277,-2.3,-2.51,-13.22,13.65
10.947341918945312,-3.8,-5.3,-12.22,13.85
10.957811832427979,-7.73,-5.19,6.81,11.53
10.969435930252075,-10.25,-4.41,5.57,12.47
10.97807788848877,-10.38,-4.48,-5.25,12.46
10.993531942367554,-8.19,-5.04,-0.3,9.62
10.998043060302734,-4.34,-1.82,-0.03,4.7
11.008033990859985,0.13,0.54,0.99,1.13
11.019680976867676,2.44,1.03,-1.54,3.06
11.028150081634521,3.51,1.35,-0.73,3.83
11.038334846496582,3.48,1.75,0.35,3.91
11.048310995101929,1.56,0.58,-2.3,2.83
11.058530807495117,-0.17,-0.64,-1.63,1.75
11.069973945617676,-1.44,-0.87,-0.24,1.69
11.080120086669922,-1.97,-1.08,-0.28,2.26
11.093830108642578,-1.47,-0.77,0.11,1.66
11.098729133605957,-0.54,-0.1,0.25,0.6
11.10887098312378,0.16,0.16,-0.07,0.23
11.119959831237793,0.44,0.26,-0.37,0.63
11.129024028778076,0.38,0.07,-0.46,0.6
11.139028072357178,0.36,-0.03,-0.13,0.38
11.149016857147217,0.15,-0.04,-0.02,0.15
11.15922999382019,-0.03,0.01,0.41,0.41
11.170618057250977,-0.14,0.04,0.29,0.32
11.180598974227905,-0.16,-0.06,0.21,0.27
11.193313121795654,-0.22,-0.05,0.26,0.34
11.199455976486206,-0.22,-0.05,0.22,0.31
11.209656000137329,-0.11,0.08,0.33,0.35
11.220868110656738,0.24,0.01,-0.26,0.35
11.229767799377441,0.52,0.17,-0.16,0.57
11.239902019500732,0.81,0.37,0.71,1.13
11.249946117401123,0.81,0.45,0.69,1.15
11.260313034057617,0.47,0.3,0.39,0.68
11.271551132202148,0.02,0.2,0.14,0.24
11.281368017196655,-0.19,-0.29,-0.38,0.51
11.29498291015625,-0.3,-0.39,-0.29,0.57
11.30026388168335,-0.35,-0.22,0.16,0.44
11.31050992012024,-0.38,-0.07,-0.2,0.43
11.32183313369751,-0.16,0.2,0.23,0.34
11.330655097961426,0.07,0.27,0.32,0.42
11.340715885162354,0.19,0.31,0.39,0.53
11.350680828094482,0.05,0.61,0.67,0.9
11.360965013504028,-0.09,0.49,-0.09,0.5
11.372411012649536,-0.3,0.17,-1.52,1.55
11.382365942001343,0.04,0.63,-0.01,0.63
11.396326065063477,0.15,0.6,-0.02,0.61
11.401566982269287,-0.01,0.56,-0.87,1.03
11.411173820495605,0.18,0.54,-0.57,0.8
11.422698020935059,0.0,0.35,-0.5,0.61
11.431486129760742,-0.22,0.24,-0.18,0.37
11.44152307510376,-0.6,0.35,0.02,0.69
11.45177412033081,-0.83,0.36,0.39,0.98
11.461777925491333,-0.65,0.9,0.84,1.39
11.473137855529785,-1.07,2.4,-0.08,2.62
11.481859922409058,-0.94,3.69,-0.67,3.86
11.495792865753174,0.02,5.02,-0.29,5.02
11.501780033111572,1.02,7.67,-0.24,7.74
11.512045860290527,2.57,10.37,-0.01,10.68
11.523499011993408,3.87,11.15,0.2,11.8
11.532247066497803,4.88,9.88,1.87,11.17
11.54233980178833,4.58,8.56,3.12,10.19
11.552249908447266,3.4,7.49,2.06,8.47
11.562474012374878,2.57,6.8,0.81,7.31
11.574007987976074,2.68,6.64,-0.38,7.17
11.582777976989746,2.87,5.22,-0.47,5.97
11.596072912216187,2.41,4.3,-0.42,4.94
11.602834939956665,1.99,3.79,-2.24,4.83
11.61284589767456,2.22,1.01,-2.87,3.76
11.624221801757812,3.58,-0.21,2.83,4.56
11.633069038391113,6.96,0.87,9.98,12.19
11.643240928649902,8.27,2.72,5.31,10.19
11.653247833251953,9.03,3.1,1.37,9.64
11.663397789001465,10.98,3.38,4.67,12.4
11.67480993270874,11.46,3.55,6.38,13.58
11.683708906173706,9.86,3.23,5.06,11.54
11.69766902923584,7.82,2.51,4.37,9.3
11.70370101928711,6.61,1.57,5.18,8.54
11.71374797821045,5.96,0.94,5.24,7.99
11.725219964981079,5.56,0.73,4.39,7.12
11.73392391204834,5.19,0.58,3.75,6.42
11.744009971618652,4.66,0.51,3.38,5.77
11.754071950912476,4.04,0.62,3.05,5.09
11.764261960983276,3.6,0.57,2.92,4.67
11.775584936141968,3.34,0.44,2.94,4.47
11.79129695892334,3.1,0.46,2.76,4.17
11.798128128051758,2.79,0.52,2.42,3.72
11.804508924484253,2.39,0.63,2.08,3.23
11.814516067504883,1.91,0.82,1.74,2.71
11.826044082641602,1.4,1.01,1.37,2.2
11.8350830078125,0.91,1.27,1.02,1.86
11.844843864440918,0.44,1.47,0.67,1.67
11.85489296913147,0.02,1.64,0.46,1.7
11.865041017532349,-0.45,2.2,0.24,2.25
11.877622127532959,-0.9,2.84,0.06,2.97
11.891398906707764,-1.38,3.46,0.01,3.72
11.897871971130371,-2.04,4.47,-0.45,4.93
11.905356884002686,-2.59,5.22,-1.36,5.98
11.915319919586182,-2.96,5.2,-2.09,6.33
11.926569938659668,-3.48,5.2,-2.71,6.81
11.935328006744385,-4.37,5.06,-3.26,7.43
11.945630073547363,-5.54,4.83,-3.68,8.21
11.955774784088135,-6.5,4.29,-3.88,8.7
11.965806007385254,-7.12,3.31,-4.51,9.05
11.978437900543213,-7.65,1.96,-5.36,9.54
11.99107313156128,-8.37,0.11,-5.74,10.14
11.997438907623291,-9.39,-1.91,-6.16,11.39
12.006064891815186,-10.73,-3.97,-5.72,12.79
12.016080856323242,-12.06,-5.9,-4.73,14.23
12.027443885803223,-13.09,-7.37,-3.85,15.5
12.036294937133789,-13.54,-8.2,-3.57,16.22
12.046358108520508,-13.65,-8.32,-4.27,16.54
12.056448936462402,-13.51,-8.03,-5.27,16.57
12.066651821136475,-11.89,-7.04,-5.12,14.73
12.079156875610352,-8.6,-3.99,-2.44,9.78
12.091481924057007,-4.05,-2.31,-0.21,4.66
12.098091125488281,-1.68,-4.11,-5.93,7.4
12.106965065002441,-0.5,-3.25,-0.89,3.4
12.11699891090393,1.59,0.8,10.73,10.87
12.1282479763031,1.21,6.46,6.72,9.39
12.137102127075195,0.66,8.97,1.55,9.12
12.147170066833496,-0.09,9.84,-3.04,10.29
12.157341003417969,-0.31,11.24,-3.85,11.88
12.167529106140137,-0.58,7.77,-2.31,8.12
12.179958820343018,-1.81,4.81,-2.66,5.78
12.19144582748413,-2.86,-0.53,-6.13,6.78
12.197957992553711,-4.23,-5.26,-1.8,6.98
12.20776081085205,-5.62,-4.23,0.77,7.07
12.21814489364624,-6.26,-3.14,-2.54,7.44
12.2290358543396,-5.59,-2.9,-0.97,6.37
12.238042831420898,-4.71,-2.61,0.29,5.39
12.248086929321289,-3.88,-1.7,-1.49,4.49
12.25816297531128,-2.13,-1.11,-1.39,2.77
12.268707990646362,-0.59,-0.7,-1.26,1.55
12.279575824737549,0.43,0.28,-0.67,0.84
12.291533946990967,1.15,0.66,-0.12,1.33
12.298530101776123,1.13,0.49,-0.44,1.3
12.308645009994507,0.84,0.27,-0.61,1.07
12.318483829498291,0.63,0.13,0.12,0.65
12.330034017562866,0.26,0.07,-0.1,0.28
12.338839054107666,-0.28,-0.22,-0.85,0.92
12.3488450050354,-0.52,-0.42,-0.84,1.07
12.358989953994751,-0.3,-0.26,-0.27,0.48
12.368968963623047,0.0,-0.03,0.39,0.39
12.380582809448242,0.06,0.06,0.36,0.36
12.392704010009766,0.03,0.01,0.13,0.13
12.399576902389526,0.09,0.05,0.33,0.34
12.4093599319458,0.03,0.04,0.03,0.05
12.419341087341309,0.0,-0.09,-0.48,0.48
12.430867910385132,0.12,-0.08,-0.26,0.29
12.43973684310913,0.18,0.04,-0.1,0.2
12.449757099151611,0.25,0.12,-0.01,0.27
12.459837913513184,0.3,0.18,0.14,0.37
12.469854831695557,0.43,0.29,0.14,0.53
12.481413841247559,0.67,0.33,0.74,1.05
12.492341995239258,0.34,0.28,0.74,0.86
12.500019073486328,-0.38,0.0,0.17,0.41
12.510167121887207,-0.38,-0.2,-0.38,0.57
12.520339965820312,-0.29,-0.29,-0.52,0.66
12.531623840332031,-0.06,-0.33,-0.43,0.54
12.540626049041748,-0.09,-0.19,-0.46,0.5
12.550374031066895,-0.09,-0.11,-0.56,0.57
12.560622930526733,0.09,-0.05,-0.4,0.41
12.570682048797607,0.24,0.14,0.15,0.31
12.582316875457764,0.32,0.47,0.21,0.6
12.591444969177246,0.32,0.52,-0.45,0.75
12.600809097290039,0.6,0.56,0.02,0.82
12.611030101776123,0.55,0.56,0.29,0.83
12.621038913726807,0.12,0.4,-0.04,0.41
12.632478952407837,0.07,0.38,-0.02,0.38
12.641258001327515,0.0,0.3,-0.22,0.37
12.65172791481018,0.06,0.4,-0.59,0.71
12.661412000656128,0.37,0.56,-0.3,0.73
12.672731876373291,0.37,0.66,-0.2,0.78
12.682794094085693,0.42,0.88,-0.21,0.99
12.691690921783447,0.33,0.89,-0.28,0.98
12.70181393623352,0.33,1.03,-0.12,1.08
12.71176791191101,0.16,0.93,0.01,0.94
12.721868991851807,0.02,0.81,0.32,0.87
12.733171939849854,-0.33,0.59,0.34,0.75
12.742088794708252,-0.73,0.85,0.27,1.15
12.751995086669922,-0.69,1.31,0.23,1.49
12.762290000915527,-0.3,1.36,-0.07,1.39
12.773571014404297,0.13,1.74,-0.06,1.74
12.783804893493652,0.75,2.55,0.62,2.72
12.792715072631836,1.34,3.43,1.01,3.81
12.802437782287598,1.59,5.27,0.95,5.58
12.812592029571533,1.7,7.26,0.45,7.46
12.822675943374634,2.62,8.68,0.49,9.08
12.834101915359497,3.86,9.76,0.86,10.53
12.842941999435425,4.61,10.93,1.44,11.94
12.852927923202515,4.29,12.09,1.75,12.94
12.862994909286499,3.59,11.83,1.33,12.43
12.87428092956543,2.8,10.63,0.71,11.01
12.89111590385437,2.63,9.72,-0.68,10.09
12.89333200454712,2.87,8.85,-2.23,9.56
12.903259992599487,2.7,7.76,-2.33,8.54
12.913489818572998,1.9,6.82,-3.33,7.82
12.923515796661377,2.11,2.52,-3.46,4.77
12.935364961624146,4.07,-1.28,1.33,4.46
12.94377613067627,7.9,-0.12,6.85,10.45
12.95395803451538,7.33,0.4,3.09,7.96
12.963951110839844,6.87,1.0,0.1,6.94
12.975156784057617,8.65,1.63,3.45,9.45
12.992326974868774,9.88,1.94,4.94,11.21
12.994513034820557,9.78,1.99,3.49,10.57
13.004211902618408,9.17,1.61,3.09,9.8
13.014302968978882,8.41,1.43,3.66,9.28
13.024343967437744,7.8,1.56,3.71,8.77
13.036289930343628,7.28,1.41,3.38,8.14
13.044627904891968,6.68,1.12,3.19,7.48
13.05463194847107,5.9,0.99,3.21,6.78
13.06459093093872,4.88,0.93,2.97,5.78
13.074779033660889,3.89,0.9,2.49,4.7
13.092544078826904,3.22,0.81,2.22,3.99
13.094769954681396,2.8,0.69,2.07,3.54
13.104965925216675,2.5,0.68,1.56,3.02
13.115015029907227,2.16,0.81,0.66,2.39
13.125361919403076,1.86,0.78,0.02,2.01
13.136691093444824,1.53,0.62,-0.35,1.68
13.145397901535034,1.07,0.54,-0.79,1.43
13.155398845672607,0.65,0.56,-1.12,1.41
13.165463924407959,0.25,0.59,-1.13,1.29
13.175657987594604,-0.21,0.69,-1.14,1.34
13.192847967147827,-0.52,0.84,-1.09,1.47
13.195719957351685,-0.81,1.01,-1.0,1.63
13.205779075622559,-1.14,1.25,-1.09,2.01
13.215873956680298,-1.46,1.72,-1.35,2.62
13.225851058959961,-1.76,2.44,-1.85,3.53
13.237154006958008,-2.3,2.83,-2.34,4.33
13.24606990814209,-2.78,3.11,-2.71,4.97
13.256196022033691,-3.23,3.25,-2.74,5.33
13.266203880310059,-3.83,3.54,-2.64,5.84
13.27647089958191,-4.49,3.77,-2.78,6.48
13.292783975601196,-5.08,3.81,-3.17,7.09
13.296494960784912,-5.54,3.74,-3.57,7.57
13.306621074676514,-5.8,3.77,-4.42,8.2
13.316619873046875,-6.05,3.63,-5.57,8.98
13.32680606842041,-6.63,2.36,-6.55,9.61
13.3381929397583,-7.94,-0.09,-7.39,10.84
13.346970081329346,-10.05,-3.0,-8.02,13.2
13.356969833374023,-12.56,-6.17,-6.66,15.49
13.367067813873291,-15.03,-9.09,-2.81,17.78
13.37724494934082,-16.73,-9.83,0.62,19.41
13.393582820892334,-14.97,-10.1,1.02,18.08
13.397260904312134,-11.89,-7.45,-1.82,14.14
13.4074068069458,-7.98,-6.03,-3.33,10.54
13.417471885681152,-5.36,-5.1,-4.1,8.45
13.427639961242676,-4.33,-2.76,-3.82,6.39
13.439079999923706,-4.69,-4.0,-4.33,7.53
13.447731971740723,-4.64,-3.2,5.14,7.62
13.457807064056396,-1.64,5.13,10.94,12.19
13.475957870483398,0.31,11.3,5.82,12.71
13.477946996688843,-0.04,6.04,-3.12,6.79
13.489174842834473,-0.47,5.03,-4.33,6.65
13.498136043548584,-0.63,8.95,-0.18,8.97
13.508111000061035,-1.31,6.98,-9.87,12.15
13.51859998703003,-1.21,-3.2,-19.24,19.54
13.528254985809326,-1.95,-4.05,-14.06,14.76
13.53973913192749,-3.55,-3.97,13.87,14.85
13.548666000366211,-5.27,-1.64,16.55,17.44
13.558627128601074,-9.05,-3.57,-8.12,12.67
13.570022106170654,-6.88,-4.51,1.11,8.3
13.578866004943848,-4.85,-2.82,-1.21,5.73
13.593042850494385,-2.51,-1.03,-0.21,2.72
13.598939895629883,0.6,0.69,0.41,1.0
13.609027862548828,1.81,0.63,-2.42,3.08
13.618982791900635,2.06,0.47,-1.76,2.74
13.629179000854492,1.7,0.83,-0.29,1.91
13.640541076660156,0.71,0.31,-0.88,1.17
13.649363994598389,-0.11,-0.12,-0.77,0.78
13.659406900405884,-0.73,-0.41,-0.52,0.98
13.670427799224854,-0.9,-0.43,-0.1,1.0
13.679635047912598,-0.63,-0.21,0.12,0.67
13.692593097686768,-0.32,-0.09,-0.21,0.39
13.699748992919922,-0.55,-0.23,-0.4,0.71
13.709772109985352,-0.79,-0.44,-0.51,1.03
13.719921112060547,-0.19,-0.2,-0.45,0.52
13.729965925216675,0.18,0.03,-0.4,0.43
13.741297006607056,0.39,0.16,-0.38,0.56
13.750059127807617,0.44,0.12,-0.34,0.56
13.760239124298096,0.43,0.2,-0.04,0.47
13.771564960479736,0.33,0.21,0.35,0.52
13.78042197227478,-0.07,0.02,0.35,0.35
13.792917013168335,-0.08,0.03,0.26,0.27
13.800565004348755,0.17,0.12,0.24,0.31
13.810598850250244,0.19,0.19,0.08,0.28
13.82077693939209,-0.58,-0.19,-0.08,0.61
13.830790042877197,-0.14,-0.08,0.04,0.16
13.842083930969238,0.35,0.24,-0.12,0.44
13.850933074951172,0.62,0.35,-0.06,0.71
13.86108112335205,0.74,0.39,-0.04,0.83
13.87440299987793,0.67,0.37,0.08,0.76
13.881195068359375,0.66,0.39,0.6,0.97
13.892412900924683,0.23,0.2,0.3,0.42
13.901758909225464,-0.21,-0.02,-0.13,0.24
13.91140079498291,-0.13,-0.05,-0.16,0.21
13.92151689529419,0.13,0.17,-0.4,0.45
13.931518077850342,0.3,0.27,-0.5,0.64
13.943077087402344,0.46,0.37,-0.38,0.7
13.952023029327393,0.71,0.74,-0.17,1.03
13.961979866027832,0.83,0.93,-0.05,1.24
13.97471809387207,0.87,0.93,0.24,1.29
13.982013940811157,0.63,0.9,0.27,1.13
13.993165016174316,0.44,0.77,0.45,0.99
14.00206995010376,0.21,0.64,0.28,0.72
14.012217998504639,0.04,0.59,0.1,0.59
14.022409915924072,-0.02,0.65,0.17,0.67
14.032352924346924,0.03,0.76,-0.04,0.76
14.043744087219238,0.18,1.05,-0.02,1.06
14.052551984786987,0.27,1.12,0.18,1.16
14.06267786026001,0.34,1.25,0.12,1.3
14.07521390914917,0.35,1.47,0.12,1.51
14.082854986190796,0.32,1.42,0.27,1.48
14.094167947769165,0.16,1.41,0.33,1.45
14.102988958358765,-0.13,1.64,0.14,1.65
14.11306381225586,-0.23,1.58,0.17,1.6
14.123157024383545,-0.29,2.22,0.04,2.23
14.13319206237793,-0.31,3.65,-0.17,3.66
14.144540786743164,0.59,4.34,0.29,4.38
14.153480052947998,1.55,7.2,0.32,7.37
14.163512945175171,2.62,10.0,0.04,10.33
14.173606872558594,3.99,10.33,-0.11,11.07
14.183732986450195,5.27,11.97,0.87,13.1
14.195316791534424,5.98,12.46,2.11,13.98
14.20390510559082,5.01,12.16,1.39,13.22
14.213828086853027,3.78,11.16,-0.42,11.79
14.223991870880127,3.25,10.61,-0.13,11.09
14.234018802642822,3.95,10.15,-1.09,10.94
14.245325088500977,4.45,8.67,-1.76,9.9
14.254349946975708,3.87,8.08,-2.09,9.19
14.265599012374878,2.88,7.3,-3.29,8.5
14.275183916091919,2.8,3.72,-2.66,5.36
14.284985065460205,3.23,-1.02,-2.7,4.33
14.29593300819397,3.19,-2.07,2.19,4.38
14.304768085479736,3.46,0.2,7.07,7.87
14.314738988876343,3.78,1.53,0.01,4.07
14.324834823608398,7.4,2.38,0.83,7.81
14.33544397354126,10.26,2.2,3.14,10.95
14.346549987792969,11.11,1.95,2.18,11.48
14.355218887329102,11.09,2.08,1.12,11.33
14.366311073303223,10.28,2.2,1.36,10.6
14.375236988067627,8.49,1.42,1.96,8.82
14.385355949401855,6.8,0.69,2.35,7.22
14.396580934524536,5.59,0.2,2.41,6.09
14.40546703338623,4.94,-0.05,2.28,5.44
14.415568828582764,4.89,0.03,2.32,5.41
14.425650119781494,5.14,0.42,2.25,5.62
14.435590982437134,5.27,0.74,1.93,5.66
14.44720983505249,5.16,0.75,1.52,5.43
14.45586109161377,4.72,0.45,1.16,4.88
14.467039108276367,4.08,0.26,0.76,4.15
14.475998878479004,3.47,0.21,0.19,3.48
14.485940933227539,2.9,0.27,-0.16,2.91
14.497378826141357,2.18,0.53,-0.47,2.29
14.506287097930908,1.34,0.89,-0.85,1.81
14.516313076019287,0.49,1.23,-1.42,1.94
14.526443004608154,-0.15,1.21,-1.9,2.25
14.536611080169678,-0.61,1.25,-2.04,2.46
14.54795789718628,-0.96,1.72,-2.14,2.9
14.55694580078125,-1.22,2.16,-1.95,3.15
14.574793815612793,-1.67,2.66,-2.16,3.81
14.576991081237793,-2.29,3.41,-3.04,5.11
14.586985111236572,-2.88,4.06,-3.56,6.11
14.598231792449951,-3.46,4.6,-3.4,6.68
14.607165813446045,-4.18,5.29,-3.33,7.51
14.617228984832764,-4.73,5.66,-4.17,8.47
14.627295970916748,-5.2,4.83,-5.81,9.17
14.637412071228027,-6.3,3.14,-5.89,9.17
14.64874792098999,-7.74,2.22,-4.27,9.11
14.657647132873535,-8.68,1.54,-3.92,9.64
14.667605876922607,-8.91,0.84,-5.02,10.26
14.677661895751953,-8.71,0.13,-6.14,10.65
14.687992095947266,-8.6,-0.97,-6.16,10.62
14.69919204711914,-8.76,-2.11,-4.97,10.29
14.7080078125,-9.11,-3.05,-3.83,10.34
14.718379020690918,-9.42,-3.81,-3.33,10.69
14.728158950805664,-9.72,-4.31,-2.88,11.01
14.7381911277771,-10.17,-4.18,-2.96,11.38
14.749752044677734,-10.61,-3.45,-3.31,11.63
14.758412837982178,-9.25,-2.82,-2.63,10.02
14.775134086608887,-7.27,-2.92,-0.71,7.86
14.77837610244751,-6.32,-3.02,0.2,7.0
14.788623809814453,-6.29,-3.15,0.19,7.03
14.799901962280273,-6.68,-3.38,-0.06,7.48
14.808679103851318,-6.96,-3.38,0.01,7.73
14.818742990493774,-6.77,-2.83,0.57,7.35
14.828879833221436,-6.09,-1.51,0.27,6.28
14.83901309967041,-2.81,-0.57,7.33,7.87
14.850260972976685,0.97,0.37,6.16,6.24
14.859106063842773,2.16,1.02,0.32,2.41
14.875032901763916,3.5,1.46,-1.74,4.17
14.879211902618408,4.83,3.34,0.18,5.87
14.88930892944336,5.97,7.83,7.07,12.12
14.90075397491455,4.22,15.17,6.48,17.02
14.909556865692139,1.44,13.83,1.52,13.98
14.91960096359253,1.82,8.26,3.74,9.24
14.929664134979248,2.66,8.96,1.77,9.51
14.939878940582275,0.47,-2.31,-14.62,14.8
14.951750993728638,-1.79,-7.31,-17.69,19.22
14.960017919540405,-4.68,-7.13,-13.94,16.34
14.975066900253296,-9.13,-7.23,-10.31,15.55
14.98002004623413,-14.97,-9.68,15.05,23.33
14.99013090133667,-15.93,-8.88,15.44,23.89
15.001655101776123,-13.33,-5.94,-5.77,15.69
15.010275840759277,-6.12,-4.4,-3.01,8.11
15.020364999771118,-1.23,-0.97,-4.68,4.93
15.030459880828857,3.02,1.95,1.68,3.96
15.040587902069092,3.26,1.31,-2.51,4.31
15.052164077758789,3.3,1.36,-3.21,4.8
15.061909914016724,3.7,1.83,-0.09,4.12
15.074575901031494,2.17,1.26,-0.41,2.54
15.08080005645752,-0.02,-0.16,-1.49,1.49
15.090989112854004,-1.29,-0.9,-0.89,1.8
15.102377891540527,-1.51,-0.76,-0.51,1.76
15.111150979995728,-0.78,-0.36,-0.55,1.02
15.1211519241333,-0.05,-0.13,-0.47,0.49
15.131263971328735,0.09,0.03,-0.58,0.58
15.141324043273926,0.11,0.12,-0.04,0.16
15.152988910675049,-0.14,0.0,0.21,0.25
15.162575960159302,-0.29,-0.16,-0.11,0.34
15.17478084564209,-0.37,-0.33,-0.16,0.52
15.181612014770508,-0.4,-0.31,-0.12,0.52
15.191915035247803,-0.28,-0.25,-0.06,0.38
15.203220844268799,-0.17,-0.12,0.05,0.21
15.211935043334961,0.01,0.02,-0.01,0.02
15.222000122070312,0.34,0.11,0.22,0.41
15.232081890106201,0.74,0.57,0.79,1.22
15.242286920547485,0.86,0.71,0.48,1.21
15.253585815429688,0.85,0.7,0.24,1.12
15.263564109802246,1.01,0.79,0.45,1.35
15.277771949768066,1.0,0.66,0.37,1.25
15.282423973083496,0.87,0.69,0.44,1.19
15.292634963989258,0.75,0.71,0.59,1.18
15.303820133209229,0.55,0.49,0.43,0.85
15.312741994857788,0.31,0.32,0.17,0.47
15.322906970977783,0.11,0.34,0.01,0.35
15.332993030548096,-0.08,0.43,-0.23,0.49
15.343147993087769,-0.12,0.55,0.1,0.57
15.354509830474854,-0.1,0.46,0.39,0.61
15.364444971084595,-0.1,0.18,0.29,0.35
15.379199028015137,-0.06,0.08,0.67,0.67
15.383248805999756,-0.16,0.03,0.7,0.71
15.393488883972168,-0.4,-0.22,-0.04,0.45
15.4049711227417,-0.61,-0.28,-0.47,0.81
15.413607120513916,-0.51,0.03,-0.65,0.82
15.423712015151978,0.09,0.5,-0.39,0.64
15.433848857879639,0.65,1.24,-0.61,1.52
15.44395399093628,0.68,1.99,-0.78,2.24
15.455550909042358,0.71,2.67,-0.28,2.77
15.464143991470337,0.76,3.31,0.31,3.41
15.480255126953125,0.5,3.68,0.35,3.73
15.484091997146606,0.67,3.95,0.18,4.01
15.494269847869873,1.58,4.37,1.19,4.79
15.505632877349854,2.26,5.48,1.77,6.18
15.51448392868042,1.89,6.92,0.2,7.17
15.52443790435791,1.63,7.73,0.05,7.9
15.535115957260132,1.28,8.62,0.72,8.74
15.544708967208862,1.35,8.64,1.85,8.93
15.556292057037354,2.26,8.4,2.28,8.99
15.56505298614502,3.03,8.02,0.94,8.62
15.580059051513672,3.55,6.91,-1.05,7.83
15.585402011871338,3.89,6.1,-2.36,7.6
15.595179080963135,4.25,5.47,-2.63,7.4
15.606549978256226,4.48,4.51,-2.34,6.77
15.615251064300537,4.29,3.34,-2.13,5.83
15.625349998474121,3.53,2.42,-2.61,5.01
15.635474920272827,2.97,0.77,-2.97,4.27
15.645445823669434,2.78,-1.2,-2.46,3.9
15.656825065612793,2.05,-3.0,-2.4,4.35
15.665709018707275,0.44,-3.36,0.5,3.42
15.6804780960083,-0.4,-1.7,5.83,6.08
15.685542106628418,-0.73,-0.3,1.38,1.58
15.695873975753784,1.83,1.2,0.45,2.23
15.70720911026001,5.65,1.88,3.17,6.74
15.716087818145752,8.54,1.95,4.02,9.63
15.726001977920532,9.88,2.13,3.54,10.7
15.736102104187012,10.02,2.28,2.9,10.67
15.746280908584595,9.43,2.26,2.41,9.99
15.757832050323486,7.63,1.77,2.06,8.09
15.766511917114258,5.66,1.13,1.99,6.1
15.780972957611084,4.33,0.65,1.85,4.75
15.786553859710693,3.35,0.25,1.4,3.63
15.796705961227417,2.59,-0.05,1.03,2.78
15.807929992675781,2.07,-0.14,1.03,2.31
15.816787958145142,1.75,-0.14,1.07,2.05
15.826905965805054,1.69,-0.02,0.87,1.9
15.837052822113037,1.83,0.35,0.38,1.9
15.8470139503479,1.96,0.75,-0.09,2.1
15.860180854797363,1.8,1.0,-0.35,2.08
15.867301940917969,1.37,0.99,-0.45,1.74
15.881700992584229,0.82,0.91,-0.74,1.43
15.887450933456421,0.36,0.96,-0.91,1.37
15.89754581451416,-0.04,1.21,-1.33,1.79
15.909133911132812,-0.3,1.34,-1.68,2.16
15.91774296760559,-0.43,1.22,-1.59,2.04
15.927867889404297,-0.67,1.06,-1.34,1.83
15.937861919403076,-0.96,0.85,-1.01,1.63
15.947937965393066,-1.21,0.77,-0.78,1.63
15.960939884185791,-1.38,0.89,-0.85,1.84
15.975950956344604,-1.5,1.19,-0.95,2.13
15.982903003692627,-1.66,1.68,-1.47,2.78
15.988292932510376,-1.8,2.17,-2.29,3.63
15.99848198890686,-1.94,2.62,-2.72,4.24
16.009805917739868,-2.51,2.93,-3.02,4.89
16.01883101463318,-3.58,3.06,-3.2,5.69
16.028624057769775,-4.66,2.65,-2.77,6.03
16.038650035858154,-5.48,1.79,-2.27,6.19
16.048707962036133,-5.86,0.85,-1.43,6.09
16.061325073242188,-5.37,0.46,0.57,5.41
16.076274871826172,-4.74,0.74,-0.07,4.79
16.08291006088257,-4.0,0.57,-1.88,4.45
16.088983058929443,-3.77,0.22,-2.2,4.37
16.099138975143433,-4.12,-0.3,-1.92,4.55
16.110279083251953,-4.52,-0.89,-2.28,5.14
16.11924695968628,-4.67,-1.41,-2.77,5.6
16.129336833953857,-4.72,-1.64,-2.93,5.79
16.139419078826904,-4.89,-1.8,-2.84,5.93
16.149423122406006,-5.05,-2.0,-2.78,6.1
16.162023067474365,-5.29,-2.24,-2.7,6.34
16.175950050354004,-5.42,-2.44,-2.7,6.52
16.18195390701294,-5.25,-2.41,-2.79,6.41
16.189804077148438,-4.58,-2.21,-2.65,5.73
16.199814796447754,-3.79,-1.9,-2.4,4.87
16.211111068725586,-3.21,-1.69,-2.41,4.35
16.22022294998169,-2.99,-1.88,-2.41,4.27
16.230167865753174,-3.27,-2.33,-2.32,4.63
16.24025011062622,-3.88,-2.86,-2.44,5.4
16.25029706954956,-4.42,-3.21,-2.46,5.99
16.261600017547607,-4.65,-2.98,-2.29,5.97
16.275733947753906,-4.43,-2.45,-2.1,5.48
16.281799793243408,-4.03,-2.5,-2.1,5.18
16.29060983657837,-3.94,-2.59,-2.22,5.21
16.300705909729004,-3.79,-2.4,-1.75,4.81
16.3118999004364,-3.42,-2.25,-1.43,4.33
16.320942878723145,-2.99,-1.87,-2.2,4.15
16.331040859222412,-1.92,-0.91,1.06,2.37
16.341065883636475,2.61,-0.06,15.1,15.32
16.351202964782715,4.42,1.08,11.3,12.18
16.362435817718506,1.71,-0.31,-3.47,3.88
16.37622880935669,-0.4,1.78,-13.61,13.73
16.3823459148407,0.32,5.97,-10.53,12.1
16.391451835632324,2.91,11.29,6.95,13.57
16.402014017105103,6.41,19.47,11.88,23.69
16.41273784637451,5.75,13.93,-0.47,15.07
16.421788930892944,3.15,2.92,-10.28,11.14
16.431790828704834,1.05,-3.36,-8.69,9.37
16.441944122314453,-3.76,-4.93,0.52,6.22
16.452215909957886,-8.35,-4.5,7.59,12.14
16.46332597732544,-7.74,-3.35,-3.03,8.96
16.476370811462402,-7.03,-4.22,-3.91,9.08
16.48265790939331,-6.22,-3.73,-0.62,7.27
16.492326974868774,-3.37,-1.23,-1.03,3.73
16.502212047576904,-0.64,-0.31,-0.11,0.71
16.513669967651367,1.28,0.46,-0.23,1.37
16.522531986236572,2.2,1.0,-1.45,2.81
16.53254199028015,2.46,0.94,-1.18,2.88
16.54271411895752,1.77,0.65,-0.78,2.04
16.552663803100586,0.65,0.22,-1.11,1.3
16.564106941223145,-0.32,-0.29,-0.73,0.84
16.57617497444153,-1.08,-0.53,-0.22,1.22
16.582904815673828,-1.3,-0.48,-0.04,1.38
16.593059062957764,-0.94,-0.37,-0.25,1.04
16.60316801071167,-0.41,-0.27,-0.27,0.56
16.614519119262695,-0.12,-0.08,-0.07,0.16
16.623315811157227,-0.05,0.05,-0.25,0.25
16.633352994918823,0.02,0.01,-0.37,0.37
16.643537998199463,0.08,0.0,-0.39,0.39
16.654698848724365,0.13,-0.02,-0.47,0.48
16.664867877960205,0.17,-0.02,-0.42,0.45
16.67556595802307,0.18,0.02,-0.38,0.42
16.683777809143066,0.23,0.1,0.07,0.26
16.693826913833618,0.22,0.15,0.29,0.39
16.704052925109863,0.27,0.27,0.11,0.39
16.71530294418335,0.19,0.41,-0.08,0.45
16.72414493560791,0.35,0.46,-0.36,0.68
16.73410201072693,0.81,0.51,-0.28,0.99
16.744308948516846,0.72,0.39,-0.43,0.92
16.755507946014404,0.25,0.02,-0.45,0.51
16.765974044799805,-0.29,-0.33,-0.19,0.47
16.77583885192871,-0.75,-0.57,0.24,0.97
16.785040855407715,-0.91,-0.55,0.18,1.07
16.794672966003418,-0.43,-0.16,-0.13,0.47
16.804897785186768,0.29,0.42,-0.23,0.55
16.81617784500122,0.8,0.81,-0.59,1.28
16.825088024139404,0.96,0.95,-0.74,1.54
16.83540391921997,0.8,0.92,-0.62,1.36
16.845263957977295,0.76,0.93,-0.36,1.25
16.856271982192993,0.16,0.7,0.28,0.77
16.866777896881104,-0.43,0.15,0.35,0.57
16.87598180770874,-0.6,0.16,0.39,0.73
16.885493993759155,-0.34,0.59,0.57,0.88
16.895556926727295,0.14,0.99,0.25,1.03
16.90555500984192,0.6,1.38,0.02,1.5
16.916858911514282,0.97,1.69,0.2,1.95
16.925750970840454,1.13,1.84,0.36,2.18
16.935688972473145,1.07,1.84,0.63,2.21
16.94592809677124,0.85,1.94,0.68,2.22
16.95709800720215,0.61,2.02,0.81,2.26
16.967322826385498,0.44,1.95,0.87,2.18
16.97634196281433,0.19,1.87,0.64,1.98
16.98609495162964,-0.12,2.52,0.64,2.6
16.996388912200928,-0.1,3.27,0.77,3.36
17.006444931030273,0.38,3.66,0.7,3.74
17.017655849456787,0.86,4.62,0.59,4.73
17.026565074920654,1.39,5.65,0.6,5.84
17.036711931228638,1.74,7.07,0.35,7.28
17.04679584503174,2.29,8.61,0.32,8.91
17.05954885482788,3.43,9.49,0.96,10.13
17.068310976028442,4.15,8.93,0.83,9.88
17.076977014541626,3.97,8.67,0.65,9.55
17.08710479736328,3.51,8.62,0.54,9.32
17.09709095954895,3.13,8.05,0.24,8.64
17.107342958450317,2.97,7.35,0.44,7.93
17.118870973587036,3.28,7.43,-0.26,8.12
17.12748098373413,3.34,7.45,-1.51,8.3
17.137587070465088,3.32,6.59,-2.94,7.94
17.147608995437622,3.45,5.05,-2.96,6.79
17.157705783843994,3.86,2.86,-1.52,5.03
17.17670202255249,4.22,0.14,0.3,4.23
17.178839921951294,4.92,0.41,3.37,5.97
17.187965869903564,4.15,1.14,1.53,4.56
17.197930812835693,3.0,1.46,-1.3,3.58
17.20820379257202,4.73,2.58,-0.04,5.38
17.219759941101074,7.56,2.17,2.41,8.22
17.22839593887329,9.58,1.68,2.53,10.04
17.238348960876465,10.35,1.73,1.55,10.6
17.24839210510254,10.29,1.79,1.14,10.5
17.258508920669556,9.46,1.57,1.01,9.64
17.27721881866455,8.01,1.15,0.88,8.13
17.27915382385254,6.67,0.99,0.79,6.78
17.288742065429688,5.74,0.92,0.66,5.85
17.298731803894043,5.42,0.77,0.57,5.5
17.308921813964844,5.48,0.69,0.37,5.53
17.320239067077637,5.58,0.72,0.15,5.62
17.329149961471558,5.55,0.74,-0.08,5.59
17.339123010635376,5.29,0.61,-0.38,5.33
17.3492488861084,4.81,0.57,-0.63,4.88
17.359308004379272,4.13,0.75,-1.0,4.31
17.37799096107483,3.38,1.09,-1.53,3.86
17.379934787750244,2.58,1.39,-2.01,3.55
17.3895320892334,1.85,1.6,-2.3,3.35
17.399590015411377,1.26,1.83,-2.58,3.4
17.409696102142334,0.92,1.97,-2.77,3.52
17.42085289955139,0.76,2.05,-2.72,3.48
17.429769039154053,0.61,2.33,-2.8,3.69
17.439948081970215,0.36,2.55,-2.97,3.93
17.458910942077637,-0.04,2.65,-3.13,4.1
17.460964918136597,-0.59,2.77,-3.28,4.33
17.471434116363525,-1.17,2.9,-3.4,4.61
17.480177879333496,-1.66,3.11,-3.48,4.95
17.490334033966064,-2.12,3.42,-3.52,5.34
17.50026798248291,-2.64,3.78,-3.75,5.94
17.51050901412964,-3.06,3.81,-3.86,6.22
17.52187204360962,-3.62,4.02,-3.92,6.68
17.530833959579468,-4.29,4.34,-4.21,7.41
17.540717124938965,-4.88,4.53,-4.56,8.07
17.5590558052063,-5.37,3.95,-3.67,7.6
17.56102991104126,-5.89,4.04,-3.99,8.18
17.572211980819702,-6.33,4.24,-4.82,9.01
17.581121921539307,-6.43,3.97,-5.33,9.24
17.591097831726074,-6.51,3.03,-6.57,9.73
17.601131916046143,-6.8,1.47,-7.52,10.24
17.6112859249115,-7.66,-0.65,-6.89,10.32
17.622447967529297,-9.43,-3.59,-4.87,11.2
17.63147783279419,-12.16,-6.6,-3.03,14.16
17.64150595664978,-15.16,-9.08,-1.88,17.77
17.659751892089844,-17.22,-10.0,-0.63,19.92
17.6617488861084,-15.92,-8.3,-0.6,17.96
17.6730318069458,-11.23,-5.57,-1.74,12.65
17.681847095489502,-7.57,-4.5,-1.49,8.93
17.69187092781067,-5.5,-3.03,-1.05,6.36
17.702209949493408,-3.7,-0.71,0.72,3.83
17.712085962295532,-1.93,-2.98,-4.0,5.34
17.723421096801758,-1.5,-3.11,-1.86,3.92
17.732300996780396,-1.15,1.14,6.08,6.29
17.74238395690918,-0.76,7.32,5.21,9.01
17.753615856170654,1.73,7.93,6.58,10.44
17.762520790100098,1.74,4.51,2.27,5.34
17.776726961135864,-3.42,3.39,-1.86,5.16
17.782639026641846,-7.13,5.91,-7.44,11.87
17.792705059051514,-7.11,6.43,-0.98,9.63
17.802742958068848,-8.15,-0.63,-8.84,12.04
17.813016891479492,-8.04,-7.58,-14.6,18.31
17.82426881790161,-7.35,-6.94,-9.23,13.68
17.83307981491089,-5.21,-4.16,13.13,14.72
17.843138933181763,-4.7,-0.44,6.97,8.41
17.85867691040039,-4.74,-2.0,-5.02,7.18
17.86323308944702,-2.62,-2.35,-0.68,3.58
17.874566078186035,-1.72,-0.86,-1.83,2.65
17.883441925048828,-0.11,0.1,0.99,1.0
17.893588066101074,0.03,0.02,-0.64,0.64
17.903697967529297,-0.02,-0.29,-2.59,2.6
17.913733959197998,0.64,-0.05,-1.51,1.64
17.92505693435669,1.03,0.46,0.03,1.12
17.933985948562622,0.66,0.49,0.13,0.83
17.943996906280518,0.13,0.13,-0.1,0.2
17.958513975143433,-0.35,-0.17,-0.14,0.41
17.96410298347473,-0.65,-0.28,-0.64,0.95
17.975307941436768,-0.68,-0.31,-1.09,1.32
17.984237909317017,-0.6,-0.46,-1.19,1.4
17.994451999664307,-0.38,-0.39,-0.61,0.81
18.004547119140625,0.01,-0.06,0.12,0.13
18.014620780944824,0.05,0.12,-0.05,0.13
18.02587890625,-0.06,0.05,-0.22,0.23
18.035245895385742,-0.05,-0.04,-0.12,0.13
18.044857025146484,-0.13,-0.12,-0.3,0.34
18.058954000473022,0.0,-0.1,-0.2,0.22
18.064971923828125,-0.04,-0.14,-0.21,0.25
18.07625699043274,-0.07,-0.15,-0.21,0.26
18.085588932037354,-0.04,-0.03,0.1,0.11
18.09522294998169,-0.16,-0.01,-0.01,0.16
18.105280876159668,-0.15,-0.06,-0.03,0.16
18.11538791656494,0.22,0.08,0.04,0.23
18.12660312652588,0.42,0.23,-0.03,0.47
18.135632038116455,0.43,0.29,-0.03,0.51
18.145526885986328,0.38,0.22,-0.24,0.5
18.158325910568237,0.4,0.23,-0.23,0.51
18.16569185256958,0.3,0.24,-0.27,0.46
18.17716407775879,0.22,0.23,-0.3,0.43
18.185733795166016,0.05,0.15,-0.34,0.37
18.196072101593018,-0.01,0.02,-0.36,0.36
18.20609712600708,0.11,0.3,0.17,0.36
18.216176986694336,-0.05,0.29,-0.26,0.39
18.22743511199951,0.06,0.18,-0.57,0.6
18.236258029937744,0.39,0.44,0.02,0.58
18.24748706817627,0.51,0.58,0.14,0.78
18.258598804473877,0.65,0.6,0.36,0.95
18.266654014587402,0.68,0.52,0.4,0.94
18.277830123901367,0.65,0.37,-0.01,0.74
18.286728858947754,0.75,0.5,-0.21,0.92
18.296876907348633,0.98,0.82,-0.33,1.31
18.307022094726562,1.34,1.19,-0.52,1.86
18.317069053649902,1.52,1.49,-0.53,2.19
18.328292846679688,1.55,1.72,-0.58,2.38
18.337294101715088,1.63,2.01,-0.04,2.58
18.348455905914307,1.45,2.1,0.73,2.65
18.358777046203613,0.77,1.9,1.06,2.3
18.367352962493896,-0.05,1.42,1.71,2.22
18.378674030303955,-0.53,1.0,1.66,2.0
18.387758016586304,-0.77,0.89,1.64,2.01
18.397675037384033,-0.97,1.34,1.22,2.05
18.407823085784912,-1.03,1.84,0.73,2.23
18.41789484024048,-0.56,2.03,0.49,2.16
18.42911696434021,0.29,2.54,0.34,2.57
18.437983989715576,0.94,3.83,0.39,3.96
18.44917106628418,1.47,5.25,0.71,5.49
18.45921802520752,2.1,5.98,1.02,6.41
18.468589782714844,2.58,6.5,1.08,7.07
18.47957181930542,2.7,6.66,1.23,7.29
18.488321781158447,2.56,7.0,1.48,7.59
18.498544931411743,2.85,7.33,2.05,8.12
18.50858211517334,3.03,7.66,1.07,8.3
18.519062042236328,2.92,7.65,-0.68,8.21
18.530107021331787,3.04,7.16,-0.33,7.78
18.538928031921387,2.98,6.62,-0.68,7.29
18.550063133239746,2.79,7.21,-1.62,7.89
18.5590500831604,3.08,7.35,-2.51,8.35
18.56900978088379,3.48,6.16,-2.04,7.36
18.58036184310913,2.93,5.75,-1.47,6.61
18.58932113647461,2.59,5.17,-2.93,6.48
18.599300861358643,2.75,3.21,-1.57,4.5
18.609363079071045,3.19,1.11,0.52,3.41
18.619386911392212,3.71,-0.48,-0.5,3.77
18.63073992729187,4.55,0.04,1.95,4.95
18.639795780181885,2.94,1.12,1.27,3.39
18.649652004241943,1.81,1.78,-0.47,2.58
18.659750938415527,4.5,3.37,2.16,6.02
18.669867038726807,7.92,3.23,3.7,9.31
18.681073904037476,9.7,2.65,1.73,10.2
18.690119981765747,9.81,2.72,0.81,10.21
18.700058937072754,9.22,3.14,1.06,9.79
18.710202932357788,8.44,3.06,1.01,9.03
18.720544815063477,7.56,2.37,0.62,7.94
18.73168182373047,6.83,1.56,0.56,7.02
18.74062490463257,6.25,0.96,0.8,6.37
18.750526905059814,5.57,0.89,0.7,5.68
18.7607159614563,4.81,1.09,0.26,4.93
18.77087092399597,4.17,1.28,0.0,4.36
18.782071113586426,3.76,1.49,-0.22,4.05
18.79085111618042,3.46,1.49,-0.22,3.77
18.80104112625122,3.17,1.37,-0.33,3.46
18.810992002487183,2.87,1.28,-0.56,3.19
18.82117509841919,2.7,1.36,-0.78,3.12
18.832581043243408,2.67,1.47,-1.14,3.25
18.841364860534668,2.69,1.63,-1.69,3.57
18.851370811462402,2.5,1.87,-2.11,3.76
18.861363887786865,1.94,1.94,-2.34,3.6
18.87157392501831,1.15,1.96,-2.42,3.31
18.88259506225586,0.26,2.04,-2.5,3.23
18.891604900360107,-0.61,2.31,-2.8,3.68
18.90210795402527,-1.36,2.54,-3.18,4.29
18.91173791885376,-2.06,2.85,-3.21,4.76
18.921955108642578,-2.78,3.47,-3.35,5.56
18.933351039886475,-3.44,4.26,-4.61,7.15
18.942092895507812,-3.97,4.48,-5.12,7.87
18.95915699005127,-4.62,5.13,-4.55,8.26
18.962260007858276,-5.23,5.81,-5.01,9.28
18.972306966781616,-5.74,5.16,-6.37,10.0
18.983614921569824,-6.73,3.05,-7.76,10.71
18.992438793182373,-8.61,1.73,-8.0,11.87
19.002424955368042,-10.62,0.28,-7.55,13.03
19.012650966644287,-12.26,-2.82,-5.92,13.9
19.02284812927246,-14.48,-5.49,-5.88,16.56
19.03416109085083,-16.47,-8.51,-5.99,19.48
19.044793128967285,-17.03,-11.24,-4.32,20.85
19.058789014816284,-16.64,-14.0,-3.28,21.99
19.063061952590942,-14.99,-14.42,-2.3,20.92
19.073133945465088,-12.0,-10.91,-1.2,16.26
19.084491968154907,-9.23,-7.25,-1.38,11.81
19.09327983856201,-7.57,-5.63,-3.03,9.9
19.103452920913696,-7.09,-4.22,-4.74,9.51
19.11345100402832,-6.11,-1.75,-3.22,7.12
19.123605012893677,-1.55,-0.93,2.88,3.4
19.13540291786194,1.97,1.58,8.7,9.05
19.14502191543579,2.2,4.07,3.44,5.76
19.158609867095947,3.31,5.4,1.07,6.42
19.163790941238403,4.68,4.89,3.84,7.78
19.173909902572632,2.54,6.42,-0.05,6.9
19.185755968093872,-0.21,8.47,-3.47,9.15
19.19415283203125,-2.3,8.03,-2.49,8.71
19.20421290397644,-3.98,1.75,-9.13,10.11
19.21427893638611,-5.5,-5.42,-10.44,12.98
19.224403858184814,-6.27,-5.46,6.14,10.33
19.236212968826294,-6.25,-3.51,7.72,10.53
19.24567198753357,-6.81,-3.2,-4.19,8.61
19.258710861206055,-3.83,-2.34,-0.48,4.51
19.264554977416992,-1.9,-1.04,-2.44,3.26
19.27477192878723,0.12,0.02,-1.46,1.46
19.286401987075806,1.22,0.74,1.48,2.05
19.2948899269104,0.43,0.32,-0.35,0.64
19.304944038391113,-0.1,-0.21,-1.57,1.58
19.314969062805176,-0.1,-0.2,-1.04,1.06
19.325355052947998,0.07,0.02,-0.38,0.38
19.336758136749268,0.0,0.02,-0.47,0.47
19.346561908721924,-0.19,-0.13,-0.53,0.57
19.359694004058838,-0.16,-0.11,-0.2,0.27
19.365367889404297,-0.26,-0.12,-0.23,0.36
19.37545394897461,-0.32,-0.16,-0.34,0.49
19.386836051940918,-0.34,-0.21,-0.43,0.58
19.395752906799316,-0.25,-0.21,-0.56,0.64
19.405772924423218,-0.01,-0.13,-0.54,0.55
19.41588306427002,0.13,-0.03,-0.21,0.24
19.425915956497192,0.12,0.05,0.21,0.24
19.43719482421875,-0.02,0.02,0.23,0.23
19.446128845214844,-0.16,-0.11,0.01,0.19
19.460472106933594,-0.29,-0.19,0.01,0.34
19.466161012649536,-0.38,-0.23,-0.02,0.44
19.476310968399048,-0.36,-0.23,-0.26,0.5
19.48777484893799,-0.31,-0.21,-0.26,0.45
19.49653387069702,-0.16,-0.17,-0.09,0.25
19.506706953048706,0.08,-0.03,-0.05,0.09
19.516677856445312,0.19,0.07,-0.25,0.32
19.526858806610107,0.48,0.18,-0.18,0.54
19.538329124450684,0.76,0.35,0.2,0.86
19.547093868255615,0.55,0.3,-0.04,0.62
19.561312913894653,0.2,0.12,-0.3,0.38
19.56709599494934,0.0,-0.01,-0.09,0.09
19.577214002609253,-0.11,-0.05,-0.15,0.19
19.588626861572266,-0.15,-0.15,-0.19,0.28
19.597352027893066,-0.05,-0.07,0.27,0.28
19.60739278793335,-0.08,-0.05,0.34,0.35
19.61750292778015,-0.05,0.0,0.08,0.09
19.627625942230225,0.27,0.13,-0.11,0.31
19.63900399208069,0.73,0.36,0.07,0.81
19.647861003875732,1.01,0.57,0.22,1.18
19.66230797767639,1.01,0.68,-0.1,1.22
19.667935848236084,1.09,0.71,-0.35,1.34
19.678043842315674,1.05,0.66,-0.5,1.33
19.6894588470459,0.98,0.72,-0.05,1.21
19.69818878173828,0.78,0.69,-0.13,1.04
19.708284854888916,0.5,0.51,-0.34,0.79
19.718842029571533,0.53,0.63,-0.09,0.82
19.72850513458252,0.44,0.76,-0.24,0.91
19.73986577987671,0.51,0.83,-0.51,1.09
19.74878978729248,0.65,1.03,-0.72,1.41
19.763896942138672,0.71,1.26,-0.87,1.68
19.769147872924805,0.68,1.4,-0.84,1.76
19.778814792633057,0.5,1.43,-0.87,1.74
19.790266036987305,0.21,1.73,-0.29,1.76
19.79900312423706,-0.27,2.1,-0.14,2.12
19.809060096740723,-0.59,2.53,-0.03,2.59
19.819132804870605,-0.57,2.81,-0.16,2.87
19.82929801940918,-0.21,3.17,0.31,3.19
19.84206485748291,0.23,4.51,1.28,4.69
19.84947896003723,0.63,5.86,2.14,6.27
19.863725900650024,1.11,5.37,1.99,5.83
19.86943006515503,1.5,5.95,1.27,6.26
19.8796169757843,2.03,6.44,1.26,6.86
19.890978813171387,2.51,5.96,1.9,6.74
19.89977788925171,2.94,5.93,2.3,7.0
19.9098219871521,3.29,5.96,2.11,7.12
19.91997003555298,3.27,5.67,0.79,6.59
19.930030822753906,2.79,5.35,-0.44,6.04
19.942752838134766,2.02,5.42,-1.22,5.91
19.950308799743652,1.16,6.02,-1.56,6.32
19.964096069335938,0.79,6.89,-1.6,7.11
19.97029685974121,1.26,6.57,-1.58,6.87
19.980412006378174,1.22,5.56,-2.78,6.33
19.991667985916138,1.8,3.53,-2.52,4.69
20.000576972961426,3.07,0.85,0.42,3.21
20.010581016540527,4.37,2.02,4.15,6.35
20.020673990249634,3.26,2.45,1.87,4.48
20.030821800231934,3.9,2.42,0.84,4.66
20.043370008468628,6.44,2.48,2.67,7.39
20.05101990699768,8.71,1.99,4.04,9.8
20.064043045043945,9.52,1.52,3.46,10.24
20.071248054504395,9.48,1.16,2.87,9.97
20.08119797706604,8.82,1.06,3.09,9.4
20.092434883117676,7.16,1.05,3.37,7.98
20.10130500793457,5.66,1.04,3.16,6.56
20.11150598526001,4.82,0.84,2.87,5.67
20.121454000473022,4.52,0.49,2.93,5.4
20.131645917892456,4.54,0.33,3.1,5.5
20.144041061401367,4.6,0.41,3.14,5.58
20.15870499610901,4.55,0.5,3.0,5.47
20.164546012878418,4.25,0.58,2.83,5.13
20.171998977661133,3.8,0.65,2.72,4.71
20.1819109916687,3.34,0.68,2.52,4.23
20.19332790374756,2.81,0.78,2.27,3.69
20.20236301422119,2.11,0.87,1.97,3.01
20.212212085723877,1.3,0.87,1.73,2.33
20.222350120544434,0.52,0.85,1.52,1.81
20.232513904571533,-0.06,0.77,1.27,1.48
20.24380588531494,-0.37,0.75,1.1,1.38
20.25923800468445,-0.49,0.87,0.97,1.39
20.265448093414307,-0.49,1.05,0.86,1.44
20.272769927978516,-0.53,1.1,0.65,1.38
20.282814979553223,-0.79,1.13,0.34,1.42
20.294075965881348,-1.22,1.14,0.22,1.68
20.302917957305908,-1.73,1.17,0.06,2.08
20.313068866729736,-2.33,1.36,-0.18,2.7
20.323218822479248,-2.98,1.7,-0.43,3.45
20.33327007293701,-3.54,2.06,-0.55,4.13
20.34456992149353,-3.92,2.48,-0.79,4.7
20.359795093536377,-4.35,3.08,-1.01,5.42
20.36588478088379,-5.09,3.74,-1.24,6.43
20.37359595298767,-5.72,4.58,-0.07,7.32
20.3836829662323,-3.97,1.23,-1.43,4.39
20.394938945770264,-5.28,3.04,-1.9,6.38
20.403892993927002,-5.66,1.65,-1.31,6.03
20.413938999176025,-5.76,0.92,-3.1,6.6
20.42400312423706,-6.44,0.53,-3.98,7.58
20.434085845947266,-6.92,-1.04,-3.82,7.97
20.445387840270996,-7.92,-2.77,-3.07,8.93
20.459692001342773,-9.32,-4.3,-1.35,10.35
20.465706825256348,-10.57,-5.76,-0.77,12.06
20.474479913711548,-11.49,-6.76,-2.35,13.53
20.484483003616333,-12.42,-5.16,-3.23,13.83
20.495779037475586,-10.2,-4.32,-2.41,11.33
20.50468397140503,-6.58,-6.94,-3.8,10.29
20.51474690437317,-5.11,-7.73,-3.43,9.88
20.524881839752197,-6.28,-8.76,-4.14,11.54
20.535372972488403,-7.84,-6.53,2.78,10.57
20.54632806777954,-5.55,2.95,6.8,9.25
20.55961513519287,-1.65,15.96,7.75,17.81
20.565781116485596,0.9,11.82,0.49,11.86
20.575200080871582,1.85,5.25,-1.35,5.72
20.585620880126953,0.32,7.11,1.55,7.28
20.59648895263672,-2.14,4.08,-7.74,9.0
20.605580806732178,-3.52,-5.09,-15.38,16.57
20.615597009658813,-4.93,-5.46,-8.9,11.54
20.625651836395264,-6.97,-5.48,12.47,15.3
20.637165069580078,-8.98,-4.1,6.02,11.56
20.64702606201172,-9.1,-4.69,-1.25,10.31
20.658966064453125,-6.3,-3.74,-0.26,7.33
20.665846824645996,-3.98,-2.28,-4.34,6.31
20.676065921783447,-0.18,-0.29,0.02,0.34
20.685851097106934,1.74,1.1,0.84,2.22
20.6973979473114,1.7,0.7,-1.36,2.28
20.706210136413574,1.52,0.31,-1.07,1.88
20.71627712249756,1.4,0.59,0.1,1.52
20.72634196281433,1.01,0.59,0.65,1.33
20.737585067749023,0.12,-0.03,-0.83,0.83
20.74784803390503,-0.5,-0.5,-1.56,1.71
20.758867979049683,-0.42,-0.33,-0.81,0.97
20.766708850860596,-0.22,-0.01,-0.43,0.48
20.776866912841797,-0.15,-0.1,-0.96,0.97
20.78702402114868,0.01,-0.12,-0.6,0.61
20.798285961151123,0.15,0.21,0.65,0.69
20.807159900665283,-0.09,0.14,0.39,0.42
20.81721782684326,-0.33,-0.01,0.25,0.41
20.827297925949097,-0.48,-0.17,-0.21,0.55
20.838716983795166,-0.56,-0.26,-0.58,0.84
20.848679065704346,-0.27,-0.14,-0.66,0.72
20.859216928482056,0.12,0.0,-0.65,0.66
20.86746096611023,0.39,0.14,-0.35,0.54
20.877634048461914,0.53,0.27,-0.16,0.61
20.88783597946167,0.44,0.25,-0.07,0.51
20.89903497695923,0.26,0.1,-0.2,0.34
20.907970905303955,0.18,0.1,-0.24,0.31
20.917937994003296,0.16,0.07,-0.32,0.36
20.92819881439209,0.07,-0.01,-0.58,0.58
20.93946886062622,0.1,-0.05,-0.61,0.62
20.949635982513428,0.19,0.02,-0.35,0.39
20.959330081939697,0.04,-0.01,-0.35,0.35
20.96875,-0.1,-0.07,-0.3,0.32
20.97860813140869,-0.04,0.0,-0.09,0.09
20.988603115081787,-0.09,0.1,0.1,0.16
20.999910831451416,-0.08,0.21,0.25,0.33
21.00882601737976,0.06,0.31,0.38,0.49
21.019176959991455,0.22,0.48,0.45,0.69
21.028981924057007,0.37,0.66,0.39,0.85
21.0427508354187,0.53,0.7,0.38,0.95
21.050211906433105,0.61,0.74,0.56,1.11
21.059228897094727,0.55,0.84,0.57,1.15
21.06915593147278,0.59,0.85,0.66,1.22
21.079365015029907,0.63,0.97,0.69,1.34
21.089428901672363,0.54,1.18,0.77,1.5
21.100692987442017,0.43,1.17,0.53,1.35
21.109560012817383,0.39,1.36,0.36,1.45
21.119534015655518,0.43,1.55,0.3,1.63
21.12974500656128,0.66,1.76,0.18,1.88
21.142898082733154,0.8,1.96,0.11,2.11
21.150896072387695,0.83,2.26,0.34,2.43
21.159943103790283,0.74,2.24,0.48,2.4
21.17010498046875,0.55,2.07,0.46,2.19
21.180113792419434,0.09,2.01,0.44,2.05
21.190218925476074,-0.39,2.15,0.55,2.25
21.201533794403076,-0.52,2.21,0.76,2.39
21.21038007736206,-0.35,2.78,0.84,2.92
21.22045087814331,-0.01,4.53,0.96,4.63
21.23049783706665,0.55,5.38,1.1,5.51
21.243545055389404,1.34,5.04,1.0,5.31
21.252169132232666,1.39,8.92,1.03,9.08
21.260788917541504,2.09,8.34,1.16,8.67
21.270885944366455,2.93,9.0,1.82,9.63
21.280974864959717,3.38,9.39,1.7,10.12
21.291027069091797,3.32,9.62,1.3,10.25
21.302743911743164,2.9,9.43,1.23,9.94
21.31120491027832,2.27,9.71,0.97,10.01
21.32131004333496,2.37,9.48,2.27,10.03
21.33139181137085,2.69,9.99,0.48,10.35
21.341483116149902,3.64,9.94,-0.91,10.62
21.360790014266968,4.62,8.78,-0.79,9.95
21.362826824188232,4.29,7.51,-1.46,8.77
21.371667861938477,3.59,6.09,-1.87,7.31
21.381853103637695,3.67,3.84,-1.01,5.4
21.391820907592773,5.3,3.22,3.57,7.15
21.40363883972168,5.8,3.83,5.26,8.71
21.4120090007782,3.46,2.81,-0.19,4.46
21.422091007232666,4.27,3.27,1.29,5.53
21.43340301513672,7.58,3.54,6.23,10.43
21.44268298149109,10.35,2.23,6.78,12.57
21.453596115112305,11.41,1.55,4.27,12.28
21.462491035461426,11.17,1.58,3.23,11.73
21.47245192527771,9.94,1.87,3.18,10.6
21.482614040374756,7.68,1.8,2.92,8.41
21.492631912231445,5.91,1.63,2.73,6.71
21.50392484664917,4.91,1.2,2.64,5.7
21.51279592514038,4.5,0.72,2.29,5.1
21.522922039031982,4.41,0.41,1.95,4.83
21.534133911132812,4.39,0.15,1.96,4.81
21.543120861053467,4.19,0.0,1.68,4.51
21.554067134857178,3.75,-0.1,1.22,3.94
21.563273906707764,3.29,-0.39,0.88,3.42
21.573256015777588,2.87,-0.39,0.63,2.96
21.583337783813477,2.58,0.06,0.69,2.67
21.593430995941162,2.17,0.77,0.54,2.36
21.60503387451172,1.45,1.46,0.04,2.05
21.613779067993164,0.4,2.14,-0.86,2.34
21.623790979385376,-0.93,2.85,-2.13,3.67
21.642273902893066,-2.29,3.08,-3.57,5.24
21.64433479309082,-3.61,2.92,-4.52,6.47
21.655059814453125,-4.81,2.67,-4.34,7.0
21.664068937301636,-5.73,2.23,-3.39,7.02
21.674094915390015,-6.58,2.07,-2.66,7.39
21.68416690826416,-7.52,2.63,-2.78,8.43
21.694293975830078,-8.57,3.47,-3.71,9.96
21.705543041229248,-9.62,4.04,-3.98,11.16
21.714380979537964,-10.45,3.97,-4.34,11.99
21.72451686859131,-10.86,3.31,-5.48,12.6
21.742203950881958,-10.8,2.21,-5.59,12.36
21.7447190284729,-10.57,0.13,-6.15,12.22
21.755846977233887,-10.6,-2.07,-7.57,13.18
21.764773845672607,-11.14,-4.48,-7.83,14.33
21.774858951568604,-11.99,-7.32,-5.6,15.12
21.78531503677368,-13.27,-9.44,-2.72,16.51
21.795058965682983,-14.53,-10.37,-1.26,17.89
21.80644989013672,-14.26,-8.85,-1.88,16.88
21.815194129943848,-11.62,-3.41,-2.22,12.31
21.825282096862793,-6.41,-1.78,-2.36,7.05
21.842432975769043,-3.05,-3.88,-4.98,7.01
21.84547710418701,-2.77,-6.37,-5.1,8.61
21.85676097869873,-4.95,-6.22,0.61,7.97
21.865689992904663,-5.1,1.29,9.31,10.69
21.87572479248047,-2.73,11.63,11.0,16.23
21.885991096496582,-1.43,10.33,0.56,10.44
21.89591884613037,0.74,5.61,-3.3,6.55
21.907165050506592,0.03,2.15,-0.47,2.2
21.916121006011963,-3.0,2.99,-1.1,4.37
21.926126956939697,-5.59,5.73,-7.25,10.8
21.94281578063965,-6.65,-2.67,-14.18,15.88
21.94624900817871,-7.44,-6.42,-11.4,15.05
21.957479000091553,-8.36,-7.01,6.84,12.87
21.96649694442749,-6.91,-4.11,13.24,15.48
21.97651481628418,-7.37,-2.92,-2.21,8.22
21.986666917800903,-4.3,-2.71,-0.53,5.11
21.99671196937561,-2.57,-1.55,-3.85,4.88
22.008112907409668,0.91,0.44,0.99,1.41
22.01687479019165,1.28,1.04,0.91,1.88
22.027014017105103,0.15,0.01,-2.15,2.15
22.042675971984863,0.48,-0.14,-1.25,1.34
22.04707384109497,0.85,0.28,-0.24,0.92
22.058289051055908,0.57,0.26,-0.3,0.69
22.067284107208252,0.16,0.04,-1.15,1.16
22.077284812927246,-0.03,-0.1,-1.23,1.23
22.087502002716064,-0.12,-0.13,-0.88,0.89
22.09744882583618,-0.12,-0.09,-0.71,0.72
22.1088969707489,-0.03,-0.05,-0.65,0.65
22.117684841156006,0.18,0.06,-0.05,0.19
22.127880096435547,0.2,0.15,0.35,0.43
22.142440795898438,-0.09,0.02,0.28,0.29
22.14785385131836,-0.32,-0.16,0.15,0.38
22.159158945083618,-0.3,-0.21,0.07,0.37
22.168118953704834,-0.09,-0.11,0.03,0.14
22.17816686630249,0.08,-0.01,-0.1,0.12
22.188211917877197,0.21,0.07,-0.18,0.28
22.198292016983032,0.37,0.11,-0.24,0.45
22.209720134735107,0.43,0.11,-0.24,0.5
22.21885108947754,0.47,0.14,-0.08,0.49
22.229862928390503,0.55,0.19,0.03,0.58
22.24271297454834,0.63,0.33,0.09,0.71
22.248712062835693,0.64,0.39,0.22,0.78
22.26012897491455,0.51,0.32,0.0,0.6
22.26926279067993,0.35,0.23,-0.04,0.42
22.27897000312805,0.23,0.15,-0.05,0.27
22.289108991622925,0.13,0.17,-0.01,0.21
22.299091815948486,0.04,0.18,-0.01,0.18
22.310523986816406,0.0,0.15,0.04,0.15
22.319326877593994,-0.12,0.11,0.12,0.2
22.33066701889038,-0.14,0.18,0.14,0.26
22.34260392189026,-0.04,0.31,0.06,0.31
22.349498987197876,0.16,0.45,-0.13,0.49
22.360772132873535,0.52,0.77,-0.04,0.93
22.369772911071777,0.89,1.03,-0.08,1.36
22.379745960235596,1.12,1.46,0.17,1.84
22.38997793197632,1.2,1.75,0.63,2.21
22.399962902069092,1.01,1.78,0.66,2.15
22.411215782165527,0.85,1.56,0.63,1.88
22.420076847076416,0.43,1.62,0.54,1.76
22.43147301673889,0.28,1.59,0.97,1.88
22.44299602508545,0.17,0.97,0.16,0.99
22.45042395591736,0.11,1.23,-0.17,1.24
22.461585998535156,0.16,1.68,0.18,1.69
22.470483779907227,0.42,1.96,0.02,2.0
22.48055410385132,0.82,2.43,0.12,2.56
22.49075412750244,1.22,2.77,0.52,3.07
22.500732898712158,1.39,2.75,0.7,3.15
22.512035846710205,1.32,2.74,0.65,3.11
22.520925045013428,1.01,2.45,0.54,2.7
22.53206992149353,0.42,1.74,0.18,1.79
22.542051792144775,-0.23,1.98,-0.09,1.99
22.551144123077393,-0.62,4.14,0.24,4.19
22.56221580505371,-0.18,4.71,0.74,4.77
22.571412086486816,0.65,6.04,1.02,6.15
22.581318855285645,1.65,7.06,1.3,7.36
22.591561794281006,2.45,8.09,1.35,8.55
22.601557970046997,3.04,8.8,1.53,9.43
22.613049030303955,3.35,9.12,1.78,9.87
22.62198495864868,3.19,9.41,1.35,10.02
22.631855964660645,2.94,9.83,0.61,10.27
22.642539978027344,3.26,9.57,1.02,10.16
22.652400970458984,3.88,9.6,0.37,10.36
22.663355827331543,4.44,9.64,-1.12,10.67
22.672225952148438,4.55,8.9,-0.8,10.02
22.682240962982178,3.98,7.88,-0.68,8.85
22.692368030548096,3.48,6.61,-0.91,7.52
22.7026789188385,3.53,5.0,-0.63,6.15
22.7138409614563,4.18,2.83,1.51,5.26
22.72262191772461,5.8,2.63,6.74,9.27
22.73265790939331,5.95,2.21,2.28,6.74
22.74284791946411,4.61,2.17,-1.77,5.39
22.752701997756958,4.29,3.66,0.18,5.64
22.7641339302063,6.37,3.78,3.49,8.18
22.77308702468872,8.79,2.52,5.25,10.54
22.783065795898438,10.18,1.79,4.46,11.25
22.793226957321167,10.13,1.71,3.44,10.83
22.80319881439209,9.42,1.86,2.91,10.03
22.814630031585693,8.64,1.93,2.83,9.29
22.823538780212402,7.8,1.63,2.97,8.5
22.833622932434082,6.97,1.08,2.94,7.64
22.843374967575073,6.06,0.59,2.29,6.5
22.8536958694458,5.03,0.44,1.52,5.27
22.864928007125854,3.96,0.42,1.07,4.12
22.873919010162354,3.12,0.41,0.77,3.23
22.883870124816895,2.52,0.54,0.27,2.59
22.894023895263672,2.1,0.6,-0.15,2.18
22.904101848602295,1.65,0.75,-0.4,1.85
22.915488958358765,1.02,1.09,-0.38,1.54
22.924304008483887,0.29,1.45,-0.44,1.54
22.93430995941162,-0.58,1.81,-0.86,2.08
22.9442880153656,-1.49,2.2,-1.18,2.9
22.954567909240723,-2.48,2.94,-1.57,4.15
22.96578097343445,-3.45,3.84,-2.18,5.6
22.97472095489502,-4.0,4.52,-2.88,6.68
22.984753131866455,-4.24,5.08,-4.4,7.94
22.99486494064331,-4.68,5.4,-5.36,8.93
23.0050368309021,-5.75,5.56,-4.71,9.28
23.016273021697998,-7.57,5.85,-4.46,10.55
23.02662992477417,-9.68,5.33,-5.02,12.13
23.042462825775146,-11.99,4.25,-6.36,14.22
23.045315980911255,-14.11,1.74,-6.4,15.59
23.05542802810669,-15.69,-1.09,-6.42,16.98
23.06664490699768,-16.7,-3.85,-6.53,18.33
23.075912952423096,-16.99,-7.45,-6.13,19.53
23.08588194847107,-16.74,-11.53,-5.03,20.93
23.095619916915894,-16.14,-14.66,-2.71,21.97
23.105695962905884,-15.48,-15.84,-1.93,22.23
23.11732792854309,-14.34,-13.64,-2.32,19.92
23.12716007232666,-12.14,-9.35,-2.33,15.49
23.142836093902588,-9.63,-6.46,-3.08,11.99
23.145891904830933,-7.87,-2.55,-1.67,8.43
23.15611505508423,-3.62,-5.48,-1.26,6.68
23.167340993881226,-0.4,-4.73,4.44,6.49
23.176317930221558,0.69,1.09,2.96,3.22
23.186171054840088,2.68,11.83,3.53,12.63
23.19642996788025,3.36,9.82,4.64,11.36
23.206520080566406,1.92,5.75,-2.44,6.53
23.21788001060486,2.2,9.31,-1.27,9.65
23.227994918823242,0.98,8.82,-3.15,9.41
23.242491960525513,-0.87,4.17,-4.9,6.49
23.246834993362427,-2.51,0.99,-3.57,4.47
23.256940841674805,-4.91,-3.26,-4.27,7.27
23.268177032470703,-6.97,-5.7,1.24,9.08
23.27712893486023,-7.82,-4.71,1.48,9.24
23.287147045135498,-7.25,-4.27,-1.04,8.47
23.297210931777954,-5.46,-3.31,-0.72,6.42
23.3073410987854,-3.48,-1.81,-0.89,4.02
23.319151878356934,-1.27,-0.77,-0.34,1.52
23.328640937805176,0.0,0.02,-0.23,0.23
23.34217095375061,0.15,0.04,-0.79,0.8
23.347510814666748,0.02,-0.09,-0.86,0.86
23.357670783996582,0.06,0.0,-0.38,0.38
23.369422912597656,0.09,0.02,-0.34,0.35
23.37794303894043,-0.09,-0.16,-0.57,0.59
23.387916088104248,-0.29,-0.34,-1.13,1.21
23.397949934005737,-0.53,-0.34,-1.05,1.22
23.408139944076538,-0.6,-0.35,-0.94,1.16
23.420051097869873,-0.56,-0.34,-0.96,1.16
23.42828607559204,-0.51,-0.26,-0.77,0.95
23.44306182861328,-0.23,-0.13,-0.34,0.43
23.448410987854004,-0.07,0.02,0.04,0.08
23.458627939224243,-0.04,0.03,0.25,0.25
23.470165967941284,-0.2,-0.07,0.14,0.25
23.47867488861084,-0.33,-0.22,-0.07,0.4
23.488646030426025,-0.25,-0.15,-0.07,0.29
23.49886703491211,-0.12,-0.1,-0.2,0.25
23.5089750289917,0.15,0.02,-0.18,0.23
23.520698070526123,0.28,0.08,-0.11,0.31
23.52911901473999,0.27,0.08,-0.09,0.29
23.54253387451172,0.26,0.08,0.19,0.33
23.5492000579834,0.14,0.05,0.15,0.21
23.55942678451538,0.08,0.02,-0.05,0.09
23.57057285308838,0.07,-0.03,-0.14,0.15
23.579591989517212,0.25,0.09,0.02,0.26
23.589622020721436,0.28,0.18,0.09,0.34
23.599649906158447,0.22,0.18,0.03,0.28
23.609675884246826,0.22,0.17,0.07,0.28
23.621272087097168,0.15,0.13,0.07,0.21
23.6302649974823,0.01,0.05,-0.04,0.06
23.645061016082764,-0.07,0.0,-0.02,0.07
23.650135040283203,-0.02,0.09,0.04,0.1
23.660170078277588,0.14,0.14,-0.05,0.2
23.671527862548828,0.4,0.25,0.22,0.52
23.680336952209473,0.52,0.48,0.41,0.81
23.69036102294922,0.57,0.55,0.18,0.81
23.700541019439697,0.72,0.58,0.11,0.93
23.710611820220947,0.9,0.71,0.2,1.16
23.72233295440674,1.06,0.93,0.4,1.46
23.730804920196533,1.15,1.12,0.35,1.64
23.746068000793457,1.12,1.19,0.01,1.63
23.75085210800171,1.06,1.32,-0.14,1.69
23.761091947555542,0.97,1.45,-0.09,1.74
23.772367000579834,0.83,1.68,-0.11,1.87
23.781227111816406,0.66,1.79,-0.13,1.91
23.791157960891724,0.6,1.78,0.05,1.87
23.80125904083252,0.45,1.86,0.34,1.94
23.811343908309937,0.02,2.03,0.25,2.04
23.824167013168335,-0.32,2.12,0.0,2.14
23.831478118896484,-0.48,2.12,0.17,2.18
23.84587287902832,-0.47,2.53,0.64,2.65
23.851553916931152,-0.26,2.93,0.76,3.03
23.861788988113403,0.16,2.66,0.88,2.8
23.8730731010437,0.43,3.14,1.2,3.38
23.88191294670105,0.47,5.1,1.37,5.3
23.891940116882324,0.87,5.49,1.55,5.77
23.902414798736572,1.32,7.29,1.82,7.62
23.91217803955078,2.06,7.26,1.62,7.71
23.924965858459473,2.64,7.86,1.3,8.39
23.932410955429077,3.17,8.11,1.72,8.87
23.946640968322754,3.5,7.81,1.73,8.73
23.952703952789307,3.34,8.21,1.52,8.99
23.96262502670288,3.08,8.37,1.28,9.01
23.973870992660522,2.84,8.97,-0.08,9.4
23.982810020446777,3.04,9.04,-0.66,9.56
23.992873907089233,3.78,8.98,-0.59,9.76
24.002793788909912,4.3,8.77,-2.4,10.05
24.013132095336914,4.33,7.73,-2.97,9.34
24.025700092315674,3.54,6.73,-3.88,8.53
24.033206939697266,2.59,5.49,-4.88,7.78
24.046638011932373,2.7,3.07,-6.05,7.3
24.053042888641357,3.79,1.51,-1.44,4.32
24.06345796585083,2.32,0.92,8.88,9.22
24.07479500770569,-0.07,1.26,3.0,3.25
24.083620071411133,1.29,2.4,-0.33,2.74
24.09361696243286,5.02,2.52,3.59,6.66
24.103768825531006,8.11,2.48,4.33,9.52
24.113861083984375,10.06,2.52,3.46,10.93
24.126425981521606,10.89,2.27,3.66,11.71
24.13402509689331,10.46,1.8,3.63,11.21
24.147776126861572,8.99,1.4,3.31,9.68
24.154164791107178,7.13,1.15,3.05,7.83
24.164212942123413,6.05,0.92,2.67,6.67
24.175493001937866,5.65,0.66,2.18,6.09
24.184389114379883,5.57,0.44,1.93,5.91
24.194416046142578,5.39,0.4,1.78,5.69
24.204587936401367,4.98,0.44,1.36,5.18
24.21461009979248,4.43,0.41,1.03,4.56
24.226001977920532,3.82,0.31,0.98,3.95
24.234761953353882,3.12,0.22,1.02,3.28
24.247705936431885,2.34,0.16,1.0,2.54
24.25490713119507,1.58,0.06,0.85,1.79
24.265041828155518,0.86,0.0,0.63,1.06
24.276328086853027,0.21,0.04,0.49,0.53
24.28589701652527,-0.3,0.26,0.41,0.57
24.295298099517822,-0.72,0.64,0.17,0.97
24.305352926254272,-1.11,1.22,-0.24,1.66
24.31544780731201,-1.5,1.89,-0.66,2.5
24.326690912246704,-2.02,2.63,-1.05,3.47
24.343235969543457,-2.73,3.54,-1.23,4.63
24.34974193572998,-3.52,4.54,-1.79,6.01
24.3558189868927,-4.41,5.23,-2.66,7.34
24.36589288711548,-5.35,5.55,-1.77,7.9
24.377254962921143,-6.55,6.52,-1.35,9.33
24.38610291481018,-7.73,7.17,-2.77,10.9
24.396026134490967,-8.99,7.12,-4.18,12.2
24.406234979629517,-10.16,5.5,-5.35,12.73
24.41634511947632,-10.8,2.87,-7.39,13.39
24.42780900001526,-11.16,-0.45,-8.21,13.86
24.443246841430664,-11.94,-3.4,-8.07,14.8
24.44965696334839,-12.74,-7.19,-5.56,15.64
24.456557989120483,-13.56,-11.22,-0.17,17.6
24.4667649269104,-14.57,-13.84,1.34,20.14
24.47794198989868,-14.77,-14.17,-1.5,20.52
24.48675012588501,-14.35,-9.23,-3.51,17.41
24.49681806564331,-11.17,-2.83,-4.06,12.21
24.507049083709717,-6.05,-3.02,-7.35,9.98
24.517008781433105,-2.96,-3.52,-9.53,10.58
24.528346061706543,-1.1,-3.94,-6.45,7.63
24.542614936828613,-0.92,-2.7,5.18,5.91
24.548747062683105,-0.8,4.31,11.9,12.68
24.557201862335205,-1.27,8.32,4.56,9.57
24.567368030548096,0.45,6.46,1.61,6.67
24.5785870552063,1.58,4.99,0.68,5.27
24.587768077850342,-1.21,3.96,-1.36,4.35
24.59763193130493,-4.37,2.58,-1.98,5.44
24.60780906677246,-6.3,1.47,-0.65,6.5
24.625971794128418,-7.28,-0.11,-5.53,9.14
24.630320072174072,-7.75,-5.94,-10.7,14.48
24.63802194595337,-7.68,-6.63,-5.05,11.33
24.648117065429688,-6.05,-4.29,6.47,9.84
24.65814208984375,-4.71,-1.6,4.43,6.66
24.66824197769165,-3.65,-1.45,-0.88,4.02
24.679481983184814,-2.15,-1.72,-0.78,2.86
24.688435077667236,-1.09,-0.91,-2.72,3.06
24.69845199584961,1.02,0.22,-0.24,1.07
24.708494901657104,1.28,0.81,0.49,1.59
24.726379871368408,0.39,0.27,-0.92,1.03
24.73025393486023,-0.12,-0.28,-0.88,0.93
24.738837957382202,-0.32,-0.29,-0.31,0.53
24.74889898300171,-0.53,-0.25,-0.43,0.72
24.75898790359497,-0.83,-0.39,-0.73,1.17
24.769497871398926,-0.82,-0.51,-1.07,1.44
24.780264854431152,-0.6,-0.35,-0.95,1.17
24.78930902481079,-0.43,-0.19,-0.83,0.95
24.799306869506836,-0.32,-0.16,-0.85,0.92
24.809442043304443,-0.09,-0.06,-0.49,0.5
24.821012020111084,0.11,0.05,-0.06,0.13
24.83089303970337,0.12,0.1,0.08,0.17
24.84301495552063,0.1,0.07,0.1,0.15
24.84969997406006,0.02,-0.01,0.04,0.04
24.859800815582275,-0.09,-0.05,-0.05,0.11
24.869812965393066,-0.07,-0.07,-0.13,0.16
24.881173133850098,-0.28,-0.23,-0.35,0.5
24.89020800590515,-0.03,-0.09,-0.2,0.22
24.900096893310547,0.2,0.05,0.0,0.2
24.9102520942688,0.27,0.11,0.09,0.3
24.92146396636963,0.16,0.04,0.15,0.22
24.931716918945312,0.04,0.01,0.24,0.24
24.943822860717773,-0.09,-0.07,0.17,0.2
24.950763940811157,-0.17,-0.11,-0.14,0.24
24.960693836212158,-0.05,-0.03,-0.3,0.3
24.97079086303711,0.23,0.13,-0.12,0.29
24.98208498954773,0.3,0.19,-0.06,0.36
24.99102210998535,0.15,0.13,-0.14,0.24
25.000997066497803,0.09,0.09,-0.04,0.13
25.0111141204834,0.06,0.07,0.13,0.15
25.026367902755737,-0.03,0.06,0.24,0.24
25.032282829284668,-0.24,-0.06,0.03,0.24
25.041270971298218,-0.1,0.02,0.1,0.14
25.051382064819336,0.14,0.18,0.04,0.23
25.061616897583008,0.4,0.37,-0.08,0.55
25.071624994277954,0.65,0.52,-0.02,0.83
25.082816123962402,0.96,0.72,0.17,1.21
25.09188985824585,1.2,0.93,0.5,1.59
25.10173797607422,1.17,1.01,0.58,1.65
25.111918926239014,1.02,1.03,0.25,1.47
25.12631392478943,0.94,1.14,-0.05,1.47
25.133107900619507,0.89,1.33,-0.35,1.63
25.142030954360962,0.86,1.6,-0.54,1.89
25.152501106262207,0.9,1.86,-0.48,2.12
25.16225290298462,0.93,2.04,-0.37,2.27
25.172340869903564,0.87,2.16,0.12,2.33
25.183599948883057,0.55,1.99,0.37,2.09
25.192584991455078,0.18,1.71,0.41,1.76
25.202836990356445,-0.31,1.47,0.29,1.53
25.212700843811035,-0.83,1.35,0.22,1.59
25.226059913635254,-1.06,1.36,0.22,1.73
25.233821868896484,-1.06,1.55,0.1,1.88
25.242923974990845,-0.82,1.94,0.49,2.16
25.25286102294922,-0.31,2.39,0.79,2.53
25.263020038604736,0.39,2.1,0.83,2.29
25.27318000793457,0.72,3.09,0.73,3.25
25.284382820129395,0.63,7.37,0.76,7.43
25.293283939361572,1.7,7.07,1.39,7.4
25.303267002105713,2.87,7.89,1.09,8.46
25.313547134399414,3.92,9.1,0.68,9.93
25.32709312438965,4.35,9.14,0.81,10.15
25.334718942642212,4.19,8.89,1.12,9.89
25.343748092651367,3.66,8.86,0.81,9.62
25.353891849517822,2.94,8.57,0.02,9.06
25.363851070404053,2.67,8.3,1.09,8.78
25.373970985412598,2.91,9.06,-0.59,9.53
25.385809898376465,3.42,8.83,-1.63,9.6
25.394239902496338,3.8,7.85,-1.43,8.83
25.40436887741089,3.6,6.67,-1.71,7.77
25.415647983551025,3.22,5.27,-1.3,6.31
25.426767826080322,3.27,3.8,-0.01,5.01
25.436028957366943,3.7,1.2,0.97,4.0
25.444519996643066,4.23,1.78,6.31,7.8
25.45465087890625,2.69,2.89,2.7,4.78
25.464645862579346,2.74,3.44,0.05,4.39
25.474905014038086,6.56,3.52,3.5,8.22
25.48671579360962,9.93,2.88,5.51,11.71
25.49505090713501,11.15,2.76,3.84,12.11
25.50504779815674,10.85,2.65,2.09,11.36
25.516402006149292,9.22,2.45,1.6,9.67
25.526395797729492,7.02,1.89,1.86,7.5
25.536876916885376,5.54,1.29,2.42,6.18
25.545326948165894,4.58,0.85,2.56,5.31
25.555486917495728,4.18,0.45,2.51,4.89
25.565446853637695,3.98,0.18,2.56,4.73
25.575695037841797,3.73,0.21,2.47,4.47
25.58743906021118,3.41,0.31,2.17,4.05
25.595844984054565,3.14,0.41,1.85,3.66
25.605812072753906,2.95,0.48,1.59,3.38
25.617213010787964,2.75,0.57,1.3,3.09
25.62656879425049,2.36,0.71,1.02,2.66
25.637486934661865,1.66,0.8,0.62,1.94
25.646147966384888,0.69,0.87,0.01,1.11
25.65629005432129,-0.32,0.88,-0.49,1.05
25.666178941726685,-1.22,0.96,-0.83,1.76
25.676562786102295,-1.87,1.05,-0.96,2.34
25.687798023223877,-2.36,1.19,-0.88,2.78
25.696649074554443,-2.76,1.51,-0.73,3.22
25.706689834594727,-3.18,1.98,-0.91,3.85
25.71787190437317,-3.6,2.46,-1.54,4.62
25.726862907409668,-4.02,2.78,-1.72,5.18
25.737919807434082,-4.55,3.32,-1.49,5.82
25.746946811676025,-5.04,4.08,-1.5,6.65
25.757097959518433,-5.43,4.73,-2.14,7.51
25.767094135284424,-5.8,5.11,-2.97,8.28
25.7772479057312,-6.34,4.97,-3.79,8.9
25.788506984710693,-7.03,4.1,-5.16,9.63
25.797362804412842,-7.87,2.75,-6.56,10.6
25.807435989379883,-8.87,0.23,-6.65,11.08
25.817627906799316,-10.6,-2.52,-5.87,12.37
25.82763385772705,-12.74,-5.41,-4.76,14.63
25.838934898376465,-14.67,-8.41,-3.17,17.2
25.847805976867676,-15.8,-11.17,-1.96,19.44
25.857906818389893,-16.02,-12.49,-2.22,20.43
25.867934942245483,-14.67,-10.95,-3.38,18.61
25.878098011016846,-11.53,-7.94,-3.87,14.52
25.889457941055298,-8.95,-6.14,-3.84,11.51
25.89827299118042,-7.99,-3.01,-3.01,9.05
25.908342838287354,-4.71,0.48,0.44,4.75
25.918466091156006,-1.06,-2.14,-3.86,4.53
25.928425788879395,1.72,-1.33,5.08,5.52
25.939859867095947,2.13,3.19,8.9,9.69
25.94853687286377,0.2,5.4,0.83,5.46
25.958728790283203,1.68,4.53,1.51,5.06
25.969185829162598,2.38,5.69,2.36,6.6
25.97900700569153,-0.69,6.25,-0.17,6.29
25.99031400680542,-3.99,2.81,-0.88,4.95
25.999125957489014,-5.89,-0.17,-1.07,5.98
26.00913906097412,-6.51,0.36,-0.57,6.54
26.02660298347473,-6.73,-0.3,-6.51,9.36
26.029232025146484,-7.26,-5.91,-10.41,14.0
26.040780067443848,-6.18,-5.62,-2.56,8.73
26.04950189590454,-3.79,-2.12,5.23,6.79
26.05955696105957,-3.46,-1.04,1.07,3.76
26.06965684890747,-2.9,-1.55,-0.19,3.29
26.07967710494995,-2.47,-1.5,-0.6,2.95
26.09097194671631,-2.13,-1.26,-0.99,2.66
26.099863052368164,-1.19,-0.53,0.53,1.4
26.109872817993164,-0.71,-0.2,-0.03,0.73
26.12610697746277,-0.18,-0.22,-0.57,0.63
26.13002896308899,0.3,0.02,-0.79,0.84
26.14123797416687,0.61,0.22,-0.78,1.01
26.150195121765137,0.83,0.34,-0.73,1.15
26.16031789779663,0.58,0.17,-0.94,1.11
26.170342922210693,0.14,-0.07,-1.02,1.03
26.180479049682617,-0.21,-0.17,-0.7,0.75
26.19195795059204,-0.7,-0.34,-0.56,0.95
26.200686931610107,-0.86,-0.42,-0.6,1.12
26.211956024169922,-0.59,-0.27,-0.32,0.72
26.226260900497437,-0.16,-0.06,-0.04,0.17
26.230827808380127,0.11,0.07,0.08,0.15
26.242105960845947,-0.02,0.03,0.15,0.15
26.251007080078125,-0.25,-0.17,0.09,0.31
26.26111078262329,-0.16,-0.17,0.07,0.24
26.271209001541138,-0.27,-0.14,0.09,0.31
26.28129291534424,-0.38,-0.19,-0.13,0.44
26.292606830596924,-0.32,-0.21,-0.34,0.51
26.30145001411438,-0.09,-0.11,-0.32,0.35
26.312657833099365,0.19,0.02,-0.2,0.27
26.32600688934326,0.42,0.14,0.03,0.44
26.331521034240723,0.42,0.17,0.19,0.49
26.34285879135132,0.17,0.06,0.03,0.18
26.351823806762695,-0.06,-0.06,-0.11,0.13
26.361950874328613,-0.12,-0.1,-0.07,0.17
26.37193202972412,-0.08,-0.05,-0.03,0.09
26.38210678100586,-0.11,-0.04,-0.21,0.24
26.393598079681396,-0.06,-0.07,-0.19,0.21
26.402721881866455,0.12,-0.06,0.09,0.16
26.41364097595215,0.41,0.1,0.34,0.54
26.426701068878174,0.56,0.28,0.63,0.88
26.432477951049805,0.6,0.37,0.73,1.01
26.443866968154907,0.57,0.42,0.52,0.87
26.452932834625244,0.73,0.52,0.47,1.01
26.462763786315918,0.68,0.48,0.25,0.86
26.472790956497192,0.58,0.44,0.03,0.72
26.482880115509033,0.56,0.49,0.06,0.74
26.494210958480835,0.44,0.45,0.09,0.63
26.503106117248535,0.45,0.69,0.22,0.85
26.514323949813843,0.5,0.97,-0.09,1.09
26.526054859161377,0.63,1.12,-0.65,1.44
26.53330397605896,0.98,1.51,-0.66,1.91
26.54455280303955,1.3,1.83,-1.05,2.47
26.55339288711548,1.79,2.21,-1.13,3.06
26.563611030578613,1.87,3.0,-1.13,3.71
26.573606967926025,1.7,3.92,-0.61,4.31
26.58381199836731,1.56,3.85,0.16,4.15
26.5951669216156,0.87,3.47,0.62,3.63
26.603967905044556,-0.19,3.35,1.2,3.56
26.613947868347168,-0.79,3.4,1.76,3.9
26.626158952713013,-0.66,3.59,2.34,4.33
26.634087085723877,-0.3,4.19,2.31,4.79
26.645469903945923,0.55,4.47,2.24,5.03
26.65434193611145,1.17,5.19,2.19,5.75
26.66444492340088,1.31,9.81,1.8,10.05
26.67442297935486,2.52,9.22,2.03,9.77
26.684595108032227,3.68,9.57,1.7,10.39
26.69601798057556,3.98,10.27,1.65,11.13
26.704962015151978,3.51,10.09,0.66,10.7
26.71481490135193,2.93,9.67,-0.3,10.1
26.726223945617676,3.13,9.15,-0.08,9.67
26.734965801239014,3.53,8.64,-0.71,9.36
26.746324062347412,3.42,8.24,-1.97,9.13
26.75521993637085,2.84,7.67,-3.41,8.86
26.765370845794678,2.68,5.77,-3.12,7.08
26.775290966033936,2.97,2.85,-1.45,4.36
26.7858669757843,3.06,-0.81,0.11,3.16
26.796782970428467,3.41,-0.17,5.93,6.84
26.805627822875977,2.5,0.98,3.65,4.53
26.815621852874756,3.66,2.09,1.0,4.33
26.82633399963379,7.75,3.25,3.68,9.17
26.836143016815186,10.67,2.8,4.6,11.95
26.846954822540283,11.88,2.23,3.48,12.57
26.85604500770569,11.8,1.98,3.0,12.33
26.865942001342773,9.96,1.78,3.22,10.61
26.876219987869263,7.43,1.4,3.3,8.24
26.88642406463623,5.78,0.87,3.47,6.79
26.897835969924927,4.8,0.24,3.36,5.86
26.9065260887146,4.29,-0.14,2.93,5.19
26.91650104522705,4.02,-0.29,2.62,4.8
26.926573991775513,3.72,-0.19,2.66,4.57
26.936452865600586,3.35,0.01,2.57,4.22
26.94789409637451,2.87,0.13,2.43,3.76
26.956785917282104,2.34,0.16,2.48,3.41
26.966880798339844,1.62,0.35,2.33,2.85
26.976863861083984,0.77,0.56,1.84,2.07
26.986956119537354,-0.06,0.63,1.66,1.77
26.998581886291504,-0.89,0.84,1.54,1.96
27.008667945861816,-1.6,1.15,1.01,2.21
27.017236948013306,-2.11,1.35,0.41,2.53
27.027339935302734,-2.48,1.54,0.12,2.92
27.037386894226074,-2.8,1.85,0.07,3.35
27.04877281188965,-3.2,2.37,-0.13,3.98
27.0575909614563,-3.72,3.04,-0.64,4.84
27.067574977874756,-4.23,3.61,-1.23,5.69
27.07773208618164,-4.8,4.05,-1.59,6.47
27.087942123413086,-5.5,4.43,-1.69,7.26
27.09906578063965,-6.29,4.61,-1.63,7.96
27.1094388961792,-6.76,4.48,-1.78,8.3
27.11800479888916,-7.09,3.82,-2.43,8.41
27.128135919570923,-7.44,2.63,-3.53,8.64
27.13824701309204,-7.83,1.53,-4.39,9.1
27.149470806121826,-8.22,-0.07,-4.63,9.43
27.158442974090576,-8.81,-2.09,-4.54,10.12
27.16839599609375,-9.54,-4.25,-4.08,11.21
27.178454875946045,-10.39,-6.18,-3.32,12.53
27.188697814941406,-11.23,-7.65,-3.12,13.94
27.19996190071106,-12.01,-8.35,-3.75,15.1
27.210325002670288,-12.56,-8.35,-4.42,15.71
27.22611904144287,-11.96,-7.88,-4.13,14.9
27.2289080619812,-10.02,-6.82,-3.55,12.62
27.239118099212646,-8.39,-5.8,-3.09,10.65
27.250592947006226,-7.2,-3.84,-2.79,8.62
27.259310007095337,-4.63,-2.52,-1.48,5.47
27.269765853881836,-0.97,-3.47,-0.25,3.61
27.279399871826172,1.08,0.74,5.4,5.55
27.289508819580078,1.35,4.57,4.33,6.43
27.300984859466553,1.27,6.27,1.97,6.69
27.311081886291504,1.99,8.49,3.17,9.27
27.326815128326416,-0.04,9.98,-1.48,10.08
27.329739093780518,-2.8,7.28,-4.76,9.13
27.339895009994507,-3.86,2.43,-4.63,6.49
27.351469039916992,-4.9,-0.67,-3.33,5.96
27.360060930252075,-5.58,-0.49,-1.47,5.79
27.370075941085815,-5.78,-2.0,-7.53,9.7
27.38022804260254,-5.65,-5.68,-6.5,10.31
27.390368938446045,-4.07,-3.8,0.47,5.58
27.401875019073486,-3.45,-1.35,2.34,4.38
27.410393953323364,-3.62,-1.28,-0.36,3.85
27.427106857299805,-3.02,-1.49,-0.03,3.36
27.43054485321045,-3.0,-1.61,-0.86,3.51
27.440682888031006,-2.42,-1.32,-0.09,2.75
27.451926946640015,-1.59,-0.64,0.5,1.78
27.46086597442627,-1.07,-0.42,-0.3,1.18
27.470827102661133,-0.07,-0.2,-0.08,0.22
27.480956077575684,0.47,0.23,-0.27,0.58
27.49134111404419,0.71,0.22,-0.55,0.92
27.5028657913208,0.53,0.13,-0.89,1.04
27.51124596595764,0.22,-0.02,-1.27,1.28
27.526264905929565,0.14,-0.06,-1.22,1.22
27.531343936920166,0.01,-0.13,-1.0,1.0
27.54132604598999,0.01,-0.03,-0.41,0.41
27.553215980529785,-0.03,0.01,0.01,0.03
27.561638832092285,-0.12,-0.01,0.3,0.32
27.571653842926025,-0.2,-0.07,0.36,0.41
27.58177089691162,-0.28,-0.13,0.3,0.43
27.59186291694641,-0.62,-0.24,0.07,0.66
27.603530883789062,-0.79,-0.46,-0.3,0.96
27.612028121948242,-0.37,-0.3,-0.1,0.48
27.625971794128418,-0.18,-0.14,-0.06,0.23
27.632122039794922,-0.03,-0.04,-0.12,0.13
27.64220380783081,0.1,0.0,-0.09,0.13
27.653783798217773,0.35,0.12,0.24,0.44
27.662369966506958,0.38,0.19,0.44,0.61
27.672460079193115,0.25,0.14,0.25,0.38
27.68250298500061,0.19,0.1,0.15,0.26
27.692677974700928,0.13,0.05,-0.06,0.15
27.70437479019165,0.16,0.0,-0.21,0.26
27.71283483505249,0.29,0.09,-0.14,0.33
27.726017951965332,0.26,0.15,-0.31,0.43
27.732967853546143,0.35,0.21,-0.09,0.41
27.7430579662323,0.39,0.32,0.39,0.63
27.754194974899292,0.17,0.15,0.29,0.36
27.76322293281555,-0.21,0.0,-0.14,0.25
27.773343086242676,-0.35,-0.06,-0.26,0.44
27.783341884613037,-0.26,-0.09,-0.33,0.42
27.793508052825928,-0.09,0.08,-0.35,0.37
27.80592679977417,0.22,0.31,-0.22,0.43
27.8136248588562,0.69,0.57,0.15,0.9
27.827281951904297,0.87,0.83,0.52,1.31
27.83373212814331,0.81,0.91,0.24,1.24
27.843953132629395,0.84,0.93,0.0,1.25
27.855273962020874,0.91,0.95,-0.25,1.33
27.863966941833496,0.94,1.11,-0.47,1.52
27.874140977859497,1.01,1.23,-0.63,1.71
27.884282112121582,1.03,1.33,-0.54,1.76
27.894412994384766,1.02,1.51,-0.03,1.82
27.907246112823486,0.87,1.72,0.58,2.01
27.914538860321045,0.47,1.84,0.59,1.98
27.92910599708557,0.07,2.08,0.62,2.17
27.934646129608154,-0.35,2.17,0.76,2.32
27.944744110107422,-0.59,2.13,0.67,2.3
27.956166982650757,-0.66,2.07,0.92,2.35
27.964967966079712,-0.54,2.39,0.98,2.63
27.974976062774658,-0.25,2.97,0.76,3.07
27.985431909561157,0.38,2.75,0.84,2.9
27.995276927947998,0.7,4.44,1.05,4.61
28.008265018463135,1.1,6.4,1.19,6.6
28.015471935272217,1.93,8.2,1.88,8.63
28.03056812286377,2.92,8.65,2.22,9.39
28.035972118377686,3.38,9.08,1.73,9.84
28.045549869537354,3.22,8.89,1.74,9.61
28.057043075561523,2.84,8.56,2.49,9.35
28.06569790840149,2.36,8.76,1.51,9.19
28.075788974761963,2.07,8.71,0.27,8.95
28.086299896240234,2.37,8.98,0.13,9.28
28.09600305557251,3.05,8.66,-0.99,9.23
28.108475923538208,4.04,7.19,-1.0,8.3
28.116137981414795,4.04,5.97,-0.77,7.24
28.130722999572754,3.16,4.97,-0.55,5.91
28.136356830596924,2.74,3.49,-1.6,4.71
28.146268844604492,2.85,0.53,-3.18,4.3
28.157855987548828,3.13,0.5,4.87,5.81
28.166538953781128,3.23,2.58,6.86,8.0
28.17659592628479,3.93,2.99,1.37,5.12
28.186551094055176,7.61,3.34,2.66,8.72
28.196864128112793,10.19,2.77,4.13,11.33
28.211548805236816,11.1,2.41,3.74,11.95
28.21696186065674,11.07,2.42,3.27,11.79
28.227006912231445,10.59,2.32,3.37,11.35
28.236963987350464,9.26,1.82,3.52,10.07
28.24710512161255,7.37,1.14,3.44,8.21
28.25866413116455,5.98,0.67,3.37,6.89
28.267313957214355,5.02,0.35,3.14,5.93
28.277409076690674,4.46,0.06,2.77,5.25
28.28754711151123,4.17,0.05,2.38,4.8
28.297672986984253,3.92,0.23,1.97,4.39
28.31263303756714,3.4,0.34,1.64,3.79
28.317694902420044,2.67,0.31,1.36,3.01
28.327742099761963,1.89,0.3,1.19,2.25
28.337978839874268,1.23,0.41,1.15,1.73
28.347968101501465,0.68,0.58,0.98,1.32
28.359450817108154,0.07,0.81,0.68,1.05
28.368135929107666,-0.58,1.14,0.34,1.32
28.378220081329346,-1.32,1.51,-0.06,2.0
28.388355016708374,-2.03,1.98,-0.43,2.86
28.398463010787964,-2.72,2.57,-0.47,3.77
28.409822940826416,-3.39,3.56,-0.61,4.95
28.41856598854065,-4.04,4.79,-1.64,6.47
28.43326711654663,-4.49,5.54,-2.13,7.44
28.438737869262695,-4.89,6.2,-2.15,8.18
28.448795795440674,-5.72,6.86,-3.09,9.45
28.46007990837097,-6.75,6.88,-4.25,10.53
28.469409942626953,-7.71,6.13,-4.9,11.0
28.479001998901367,-8.51,4.03,-6.15,11.24
28.48905086517334,-9.37,1.15,-8.3,12.57
28.499346017837524,-10.66,-2.0,-9.03,14.11
28.510653018951416,-12.61,-5.96,-8.0,16.07
28.52674698829651,-14.92,-10.34,-6.07,19.14
28.53327989578247,-16.99,-14.51,-3.01,22.54
28.540103912353516,-18.27,-17.04,-0.77,24.99
28.54959201812744,-18.24,-16.05,-1.86,24.36
28.560824871063232,-16.0,-10.76,-5.14,19.95
28.569787979125977,-11.96,-4.86,-5.61,14.07
28.579843997955322,-6.47,-7.7,-6.08,11.75
28.589909076690674,-3.63,-6.81,-2.34,8.06
28.60129690170288,-0.37,-1.26,9.52,9.61
28.61230707168579,1.89,6.68,9.53,11.79
28.619975090026855,1.94,11.74,4.26,12.63
28.63015604019165,2.69,8.7,3.61,9.79
28.64031195640564,1.55,9.56,-1.09,9.74
28.6503689289093,0.67,9.21,-3.74,9.96
28.661731004714966,0.59,6.09,-4.56,7.63
28.670639991760254,0.0,3.17,-5.6,6.43
28.680668830871582,-1.49,-2.7,-11.6,12.0
28.690706968307495,-3.31,-4.77,-10.59,12.07
28.70205593109131,-5.66,-4.54,-0.03,7.25
28.713329792022705,-5.84,-3.59,10.98,12.94
28.72092890739441,-7.01,-2.93,-1.35,7.71
28.730982780456543,-6.53,-3.77,-0.5,7.55
28.741147994995117,-5.11,-2.92,-0.3,5.89
28.75122094154358,-3.39,-1.62,-0.92,3.86
28.762428998947144,-1.26,-0.55,1.49,2.02
28.77160096168518,-0.35,-0.07,-0.13,0.37
28.781567096710205,0.37,-0.01,-1.06,1.12
28.791558980941772,1.04,0.38,-0.47,1.2
28.80971598625183,1.08,0.48,-0.46,1.26
28.813828945159912,0.63,0.19,-0.8,1.03
28.821830987930298,0.03,-0.11,-0.84,0.84
28.83178997039795,-0.47,-0.29,-0.89,1.04
28.841962814331055,-0.72,-0.37,-0.94,1.24
28.852015018463135,-0.78,-0.35,-0.79,1.16
28.86332392692566,-0.47,-0.24,-0.73,0.9
28.872161865234375,0.09,0.03,-0.25,0.26
28.882269859313965,0.39,0.25,0.23,0.51
28.89236092567444,0.27,0.17,0.25,0.4
28.91115379333496,0.11,0.06,0.25,0.27
28.91554307937622,-0.05,-0.05,-0.03,0.07
28.92269492149353,-0.08,-0.11,-0.24,0.27
28.932639122009277,-0.09,-0.13,-0.27,0.31
28.942823886871338,-0.05,-0.09,-0.38,0.39
28.953225135803223,0.1,-0.04,-0.26,0.28
28.96420192718506,0.16,0.0,-0.02,0.16
28.97296905517578,0.19,0.06,0.23,0.3
28.98311710357666,0.18,0.09,0.49,0.52
28.993287086486816,0.06,0.06,0.39,0.39
29.01027202606201,-0.05,-0.04,0.17,0.18
29.01461410522461,-0.12,-0.09,0.09,0.17
29.02349281311035,-0.1,-0.07,-0.04,0.12
29.033451080322266,0.0,-0.04,-0.29,0.29
29.043536901474,0.05,-0.06,-0.3,0.31
29.053481101989746,0.15,0.04,-0.07,0.17
29.064912796020508,0.08,0.07,0.07,0.12
29.073856830596924,-0.01,0.03,0.08,0.08
29.083796977996826,-0.01,0.04,0.07,0.08
29.09392499923706,-0.01,0.02,-0.05,0.05
29.110476970672607,0.11,0.1,0.1,0.17
29.115224838256836,0.14,0.21,0.04,0.25
29.12428593635559,0.19,0.26,0.02,0.32
29.13423800468445,0.39,0.34,0.24,0.57
29.14439105987549,0.54,0.45,0.51,0.86
29.15442705154419,0.56,0.53,0.51,0.92
29.16583013534546,0.59,0.57,0.23,0.85
29.174664974212646,0.65,0.65,0.01,0.91
29.18475580215454,0.68,0.76,-0.45,1.11
29.194822788238525,0.93,0.93,-0.6,1.44
29.210205078125,1.16,1.12,-0.58,1.71
29.216137886047363,1.21,1.31,-0.46,1.84
29.225110054016113,1.18,1.43,-0.45,1.9
29.235045909881592,1.02,1.54,-0.34,1.87
29.245399951934814,0.5,1.67,-0.15,1.74
29.255347967147827,-0.19,1.76,-0.12,1.77
29.26665496826172,-0.65,1.67,0.48,1.85
29.27558708190918,-1.04,1.33,0.51,1.76
29.285544872283936,-1.21,1.37,0.31,1.85
29.29569697380066,-0.94,1.69,0.61,2.02
29.310495853424072,-0.45,2.29,0.9,2.5
29.31693983078003,0.13,3.38,0.83,3.48
29.325814962387085,0.83,3.51,0.65,3.66
29.33634090423584,1.34,4.05,0.75,4.33
29.3460431098938,1.52,6.27,1.43,6.6
29.356131076812744,1.97,6.61,1.88,7.14
29.367528915405273,2.46,8.04,2.49,8.76
29.376290798187256,2.86,8.71,2.91,9.61
29.386502981185913,3.06,8.41,2.41,9.26
29.397696018218994,3.0,7.92,2.44,8.81
29.41056489944458,2.92,7.39,2.63,8.36
29.417627811431885,2.52,7.39,2.2,8.11
29.426659107208252,2.39,7.74,0.79,8.13
29.436466932296753,2.63,8.4,-0.6,8.82
29.446807861328125,2.85,8.53,-1.07,9.05
29.456929922103882,2.95,8.32,-1.88,9.02
29.468307971954346,3.16,6.86,-1.76,7.75
29.477035999298096,2.79,5.39,-2.2,6.45
29.48701500892639,2.59,3.64,-2.16,4.96
29.49849510192871,2.91,0.78,-1.74,3.47
29.5097439289093,3.39,0.28,3.18,4.65
29.51839303970337,3.81,2.31,6.59,7.95
29.527487993240356,3.86,2.52,1.87,4.97
29.537456035614014,7.37,2.79,3.32,8.55
29.547624111175537,10.63,2.29,5.31,12.1
29.557708978652954,11.95,1.65,4.44,12.85
29.569491863250732,12.21,1.67,3.25,12.74
29.577847957611084,11.88,2.0,3.13,12.44
29.58808183670044,10.86,2.47,3.06,11.55
29.599166870117188,8.38,2.28,2.69,9.09
29.60962700843811,6.16,1.65,2.49,6.84
29.619635105133057,4.86,1.11,2.26,5.47
29.6282958984375,4.23,0.66,1.95,4.7
29.63835906982422,4.06,0.3,1.76,4.43
29.648427963256836,3.84,0.23,1.48,4.12
29.6585431098938,3.39,0.37,1.12,3.58
29.67040491104126,2.77,0.57,0.68,2.9
29.67865490913391,2.02,0.76,0.38,2.19
29.68874192237854,1.11,1.04,0.11,1.52
29.7000789642334,0.09,1.47,-0.31,1.5
29.709573984146118,-0.79,2.01,-0.75,2.28
29.720359802246094,-1.41,2.68,-1.31,3.29
29.7290301322937,-2.0,3.32,-1.75,4.25
29.739125967025757,-2.74,4.16,-1.93,5.34
29.749241828918457,-3.54,5.04,-2.51,6.65
29.75930094718933,-4.35,5.55,-3.27,7.77
29.77105712890625,-5.13,5.76,-3.13,8.32
29.779551029205322,-5.96,5.79,-3.32,8.94
29.789608001708984,-6.97,5.01,-4.29,9.59
29.79964780807495,-8.09,3.74,-5.36,10.4
29.809752941131592,-9.52,2.79,-6.5,11.86
29.821052074432373,-10.41,0.53,-6.11,12.08
29.829978942871094,-11.05,-2.28,-5.97,12.76
29.840008974075317,-12.24,-5.28,-6.73,14.93
29.850029945373535,-13.79,-8.77,-6.67,17.65
29.860084056854248,-15.11,-12.27,-5.03,20.1
29.87117600440979,-16.3,-15.19,-3.36,22.53
29.8804030418396,-17.18,-16.11,-3.11,23.75
29.890469074249268,-16.01,-13.12,-4.27,21.13
29.900450944900513,-12.58,-7.07,-5.06,15.29
29.910651922225952,-7.84,-4.15,-3.58,9.56
29.921701908111572,-3.9,-6.88,-4.91,9.3
29.93071985244751,-1.64,-5.6,2.78,6.46
29.94084882736206,0.25,-0.73,12.85,12.87
29.95101308822632,-0.91,3.33,2.6,4.32
29.961041927337646,0.05,6.5,2.5,6.96
29.97248888015747,1.6,6.3,4.35,7.82
29.98125982284546,1.94,7.42,0.16,7.67
29.9914608001709,0.98,12.62,4.36,13.38
30.001454830169678,-1.32,8.88,-11.47,14.56
30.01146411895752,-1.04,-3.1,-17.64,17.94
30.02287483215332,-3.08,-5.37,-13.87,15.18
30.031671047210693,-5.73,-4.89,-9.03,11.75
30.041711807250977,-5.88,-4.19,13.41,15.23
30.051942825317383,-3.79,-1.26,18.4,18.82
30.061815977096558,-7.31,-2.68,-6.63,10.22
30.073242902755737,-4.29,-3.13,2.13,5.72
30.082135915756226,-3.25,-2.43,-2.58,4.8
30.092144012451172,-0.77,-0.72,-2.0,2.26
30.102214813232422,1.83,1.29,3.11,3.83
30.11214780807495,1.06,0.82,0.03,1.34
30.123637914657593,0.34,-0.18,-1.27,1.32
30.132396936416626,0.54,0.02,0.11,0.55
30.1424298286438,0.38,0.25,0.24,0.51
30.152824878692627,-0.1,-0.1,-1.12,1.12
30.162576913833618,-0.2,-0.32,-1.66,1.7
30.173959970474243,0.1,-0.12,-1.22,1.22
30.182753086090088,0.07,0.03,-1.13,1.13
30.194015979766846,-0.05,-0.11,-0.92,0.92
30.209970951080322,-0.09,-0.07,-0.12,0.16
30.212965965270996,-0.21,-0.04,0.29,0.36
30.224419116973877,-0.43,-0.11,0.5,0.66
30.2331759929657,-0.68,-0.24,0.39,0.81
30.243165969848633,-0.79,-0.36,0.16,0.88
30.25321912765503,-0.85,-0.45,-0.07,0.96
30.26341485977173,-0.57,-0.34,-0.49,0.82
30.27482509613037,-0.14,-0.18,-0.55,0.59
30.28366994857788,0.24,0.03,-0.41,0.47
30.294869899749756,0.53,0.25,-0.38,0.69
30.310192108154297,0.5,0.28,-0.47,0.74
30.313731908798218,0.37,0.19,-0.34,0.53
30.324978828430176,0.19,0.04,-0.27,0.33
30.333995819091797,0.03,-0.04,-0.19,0.19
30.344051837921143,-0.12,-0.1,-0.07,0.17
30.354145050048828,-0.29,-0.18,-0.19,0.39
30.36421298980713,-0.38,-0.22,-0.28,0.52
30.375634908676147,-0.28,-0.19,-0.23,0.4
30.384427070617676,-0.07,-0.04,-0.14,0.16
30.395750999450684,0.09,0.09,-0.08,0.15
30.410274028778076,0.18,0.09,0.03,0.2
30.41462993621826,0.22,0.13,0.09,0.27
30.4259250164032,0.22,0.14,0.22,0.34
30.43477487564087,0.16,0.12,0.16,0.25
30.44487500190735,0.23,0.15,0.21,0.34
30.45499086380005,0.28,0.23,0.44,0.57
30.465088844299316,0.31,0.43,0.59,0.79
30.47651195526123,0.37,0.48,0.32,0.68
30.485430002212524,0.53,0.53,0.3,0.8
