time,ax,ay,az,atotal
0.010540008544921875,-0.91,-0.89,-0.84,1.52
0.01949596405029297,-0.76,-0.77,-1.74,2.04
0.02974700927734375,-0.55,-0.41,-2.23,2.33
0.03967905044555664,-0.46,0.08,-2.03,2.08
0.049720048904418945,-0.49,0.47,-1.34,1.5
0.06119394302368164,-0.51,0.63,-0.84,1.16
0.0717930793762207,-0.43,0.64,-0.27,0.81
0.07995796203613281,-0.37,0.49,0.37,0.71
0.09001016616821289,-0.27,0.14,0.63,0.69
0.10060310363769531,-0.07,0.1,0.72,0.73
0.1114811897277832,0.1,-0.02,0.29,0.3
0.12036895751953125,0.19,-0.46,-1.0,1.11
0.13033723831176758,-0.14,-0.76,-2.01,2.15
0.14051008224487305,-0.67,-0.83,-2.92,3.1
0.15086698532104492,-1.22,-0.1,-2.95,3.19
0.16319513320922852,-1.42,1.86,-1.34,2.69
0.17118215560913086,-0.72,3.08,0.59,3.21
0.18070125579833984,-0.3,1.66,0.74,1.84
0.19083404541015625,-0.16,0.13,0.71,0.73
0.2009129524230957,-0.31,-0.7,0.09,0.77
0.21219706535339355,-0.62,-0.79,-0.72,1.23
0.22115421295166016,-1.01,-0.34,-1.28,1.66
0.2310619354248047,-1.27,0.18,-1.58,2.03
0.24133825302124023,-0.82,0.19,-1.57,1.78
0.2511730194091797,-0.69,-0.29,-0.96,1.21
0.2639479637145996,-0.72,-0.71,-0.94,1.38
0.2713289260864258,-0.81,-1.11,-1.2,1.82
0.2815699577331543,-1.03,-1.45,-1.33,2.22
0.2916102409362793,-1.27,-1.61,-1.18,2.36
0.3017311096191406,-1.48,-1.56,-1.04,2.38
0.3129251003265381,-1.72,-1.55,-1.12,2.57
0.3218860626220703,-1.81,-1.65,-1.64,2.94
0.3318920135498047,-1.8,-1.93,-1.71,3.14
0.3420541286468506,-1.75,-2.11,-1.27,3.02
0.352078914642334,-1.71,-2.05,-1.01,2.85
0.3648209571838379,-1.68,-1.93,-1.14,2.8
0.37226104736328125,-1.62,-1.69,-1.37,2.71
0.38231897354125977,-1.2,-1.34,-1.18,2.15
0.3924999237060547,-0.72,-1.16,-1.04,1.71
0.4025890827178955,-0.67,-1.26,-1.14,1.82
0.4139389991760254,-0.7,-1.38,-0.85,1.76
0.4228019714355469,-0.82,-1.57,-0.53,1.84
0.4327249526977539,-0.95,-1.52,-0.22,1.8
0.4429481029510498,-1.0,-1.25,-0.16,1.6
0.4530172348022461,-0.88,-1.06,0.08,1.38
0.46584105491638184,-0.64,-0.94,0.36,1.19
0.47310614585876465,-0.33,-0.8,0.32,0.92
0.4832460880279541,-0.07,-0.83,0.05,0.83
0.4934072494506836,1.48,-2.08,-2.32,3.44
0.5035209655761719,1.3,-3.76,-12.01,12.65
0.515099048614502,-3.56,-2.48,-4.82,6.48
0.5237390995025635,-2.29,-3.3,-2.16,4.56
0.5340230464935303,-3.13,-2.84,0.7,4.28
0.5438661575317383,-2.25,-2.27,2.96,4.35
0.5539822578430176,-0.62,-1.62,3.83,4.2
0.5655081272125244,-0.5,-1.06,3.35,3.54
0.5740160942077637,-0.96,-0.72,3.3,3.51
0.5841522216796875,-0.41,-0.46,3.74,3.79
0.5942721366882324,0.8,0.29,4.55,4.62
0.6042821407318115,1.52,1.36,5.23,5.61
0.6156401634216309,2.55,1.95,4.89,5.84
0.6245090961456299,3.02,2.07,4.31,5.65
0.6342971324920654,2.35,1.65,2.93,4.1
0.6446399688720703,1.62,0.88,-0.78,2.0
0.6547081470489502,0.76,0.23,-2.1,2.24
0.6662180423736572,0.44,-0.24,-2.57,2.61
0.6747920513153076,0.67,-0.49,-2.52,2.65
0.6848070621490479,0.74,-0.66,-0.94,1.36
0.694951057434082,0.96,-1.48,0.26,1.78
0.7051210403442383,0.9,-2.18,0.77,2.48
0.7171969413757324,0.13,-2.43,1.27,2.74
0.7253460884094238,-0.61,-2.23,2.17,3.17
0.7352619171142578,-0.75,-1.94,2.65,3.36
0.7454640865325928,-0.21,-1.53,2.05,2.56
0.755518913269043,0.5,-0.95,0.71,1.28
0.7715811729431152,0.28,-0.43,-1.93,1.99
0.7756330966949463,-0.62,-0.36,-6.77,6.8
0.7857520580291748,1.01,-0.05,-3.62,3.75
0.7958102226257324,1.62,0.77,1.45,2.3
0.8059520721435547,0.62,0.67,-1.18,1.49
0.8178949356079102,-0.69,-0.14,0.02,0.7
0.826195240020752,-1.33,-1.41,2.21,2.93
0.8360872268676758,-1.0,-2.54,1.69,3.21
0.8462510108947754,0.41,-2.88,1.96,3.5
0.8562989234924316,2.18,-2.75,2.53,4.32
0.8727171421051025,3.43,-2.43,2.13,4.71
0.8764710426330566,4.27,-1.42,1.39,4.7
0.8864901065826416,4.27,-0.08,0.58,4.3
0.8965702056884766,3.59,0.38,0.04,3.61
0.9067530632019043,2.94,0.54,-0.4,3.01
0.9187731742858887,2.63,0.55,-0.63,2.75
0.9269809722900391,2.49,-0.03,-0.86,2.63
0.9368250370025635,2.42,-1.12,-0.32,2.68
0.9470601081848145,2.62,-1.89,0.76,3.31
0.9585311412811279,2.92,-2.15,0.79,3.71
0.9730610847473145,3.25,-2.29,0.48,4.0
0.9771931171417236,3.44,-2.26,-0.17,4.11
0.9872951507568359,2.9,-1.54,-1.73,3.71
0.9973049163818359,1.84,-0.6,-3.08,3.63
1.007465124130249,0.55,-0.02,-2.9,2.95
1.0189142227172852,-0.26,0.39,-1.58,1.64
1.0276451110839844,-0.66,0.85,-0.24,1.1
1.0376031398773193,-1.12,0.93,0.34,1.49
1.0484111309051514,-1.49,0.59,0.08,1.6
1.0590341091156006,-1.72,0.1,-0.53,1.8
1.0727829933166504,-2.37,-0.42,-0.63,2.48
1.0779500007629395,-2.97,-0.82,-0.41,3.1
1.0881390571594238,-3.34,-0.89,0.77,3.54
1.098146915435791,-3.67,-0.57,1.84,4.14
1.1084280014038086,-4.1,-0.1,1.99,4.55
1.1196331977844238,-4.22,0.73,1.63,4.58
1.1284799575805664,-3.98,1.47,0.8,4.31
1.1385760307312012,-3.46,1.95,-0.48,4.0
1.1487479209899902,-3.08,1.96,-1.25,3.85
1.1600360870361328,-3.1,1.11,-1.11,3.47
1.1736600399017334,-3.49,0.05,-0.33,3.5
1.1787700653076172,-3.62,-0.21,0.85,3.72
1.1889371871948242,-3.81,0.0,1.71,4.17
1.1990010738372803,-4.68,0.02,2.03,5.1
1.2093472480773926,-5.17,0.23,2.47,5.73
1.2206439971923828,-4.54,0.54,2.34,5.13
1.229301929473877,-3.39,0.97,1.18,3.71
1.2392730712890625,-2.77,1.19,-0.48,3.05
1.2495241165161133,-2.38,1.44,-1.66,3.23
1.2605819702148438,-1.91,1.69,-2.07,3.28
1.2728772163391113,-1.72,1.73,-1.76,3.0
1.2795772552490234,-1.82,1.36,-0.98,2.47
1.2897162437438965,-2.15,0.74,0.21,2.28
1.2998480796813965,-2.47,0.26,1.67,2.99
1.3099710941314697,-2.64,0.06,2.77,3.82
1.3211359977722168,-2.7,0.01,2.89,3.95
1.3300261497497559,-2.66,-0.09,2.36,3.55
1.3401601314544678,-1.84,0.06,1.33,2.27
1.3505301475524902,-0.35,0.74,-0.44,0.92
1.3602962493896484,0.64,1.31,-1.9,2.39
1.3728210926055908,1.0,1.58,-2.98,3.51
1.38037109375,1.0,1.29,-3.64,3.98
1.3906159400939941,0.94,0.8,-3.24,3.46
1.4008550643920898,0.87,0.28,-2.02,2.21
1.4107611179351807,0.86,-0.26,-0.66,1.11
1.4221630096435547,0.72,-0.71,0.24,1.03
1.4309701919555664,0.36,-0.71,0.56,0.97
1.440967082977295,0.45,-0.27,0.26,0.58
1.4509360790252686,0.57,0.05,0.09,0.57
1.461256980895996,0.32,0.17,0.9,0.97
1.4732389450073242,0.22,0.32,1.6,1.64
1.4813311100006104,0.68,0.0,0.99,1.2
1.4914250373840332,1.12,-0.13,-0.61,1.28
1.5016660690307617,1.75,0.64,-0.24,1.87
1.5117502212524414,1.64,0.85,0.97,2.08
1.523231029510498,1.08,0.08,1.53,1.87
1.5318710803985596,0.88,-0.86,1.8,2.18
1.5418510437011719,0.73,-1.12,1.83,2.26
1.55196213722229,0.31,-0.78,1.21,1.47
1.561964988708496,0.14,-0.12,0.5,0.53
1.5734829902648926,0.04,0.63,0.47,0.78
1.5821599960327148,-0.19,1.03,0.17,1.06
1.5922820568084717,-0.26,0.73,-0.26,0.81
1.6022019386291504,0.02,-0.14,-0.31,0.34
1.6125121116638184,0.69,-0.65,0.06,0.94
1.6238701343536377,0.91,-0.85,0.14,1.25
1.6326370239257812,0.86,-0.75,0.24,1.16
1.6426682472229004,0.78,0.16,0.75,1.09
1.6528992652893066,1.14,1.58,0.71,2.07
1.6628661155700684,0.71,-0.75,0.75,1.27
1.6741931438446045,0.35,-0.14,1.2,1.25
1.683068037033081,-0.8,1.65,1.01,2.09
1.693094253540039,-1.64,1.21,0.95,2.24
1.7031869888305664,-1.3,0.26,1.2,1.78
1.7133970260620117,-0.71,-0.2,0.97,1.21
1.724858045578003,-0.76,-0.51,0.47,1.02
1.7338371276855469,-0.89,-1.14,0.18,1.45
1.7436120510101318,-0.7,-1.05,-0.07,1.26
1.7550480365753174,-0.63,-0.2,-0.82,1.05
1.7637090682983398,-0.43,0.18,-1.77,1.83
1.775132179260254,0.31,0.08,-2.06,2.08
1.7842071056365967,0.7,-0.39,-1.47,1.67
1.7939231395721436,0.78,-0.43,-0.48,1.01
1.8039960861206055,0.21,-1.1,0.06,1.12
1.814115047454834,-0.19,-2.18,0.95,2.38
1.8256402015686035,0.17,-2.63,1.64,3.1
1.8345532417297363,0.54,-2.21,1.29,2.61
1.8442020416259766,0.19,-2.83,-0.12,2.83
1.8559112548828125,0.46,-3.09,-0.93,3.25
1.8645100593566895,1.07,-2.67,-1.03,3.05
1.875953197479248,1.6,-2.84,-0.87,3.37
1.884446144104004,1.51,-2.59,-0.78,3.09
1.8946020603179932,1.36,-2.9,-0.91,3.32
1.9046411514282227,2.23,-1.7,-0.18,2.8
1.9148139953613281,2.01,-0.08,-0.6,2.09
1.926321029663086,0.67,0.43,-1.59,1.77
1.9350090026855469,-0.25,0.88,-3.54,3.65
1.9450390338897705,-0.64,-0.53,-0.3,0.88
1.9563469886779785,-2.44,-0.63,1.09,2.74
1.9652280807495117,-2.91,0.09,0.79,3.01
1.9766581058502197,-1.2,6.01,0.93,6.19
1.9853761196136475,-1.53,4.97,-0.44,5.21
1.9955360889434814,-2.3,1.5,-2.32,3.59
2.0055699348449707,-1.73,1.24,-1.05,2.37
2.0157201290130615,-1.31,-0.24,0.98,1.65
2.027013063430786,-0.58,-0.84,2.21,2.43
2.035940170288086,0.21,0.24,2.47,2.49
2.0459342002868652,0.14,-0.87,1.37,1.62
2.0570082664489746,0.53,-0.15,1.35,1.45
2.0659241676330566,0.3,1.23,-0.05,1.26
2.0773420333862305,-0.27,0.15,-1.53,1.56
2.0860750675201416,-0.21,-0.56,-1.29,1.42
2.0962510108947754,-0.28,-1.52,-0.06,1.54
2.1063241958618164,0.05,-2.75,2.13,3.47
2.11650013923645,-0.03,-0.33,-0.67,0.74
2.127899169921875,1.03,1.09,-2.19,2.65
2.1368112564086914,2.59,0.4,-2.61,3.69
2.1467151641845703,3.61,0.69,-1.84,4.11
2.15694522857666,2.07,-0.46,-0.02,2.12
2.1717491149902344,0.19,-1.61,3.4,3.76
2.1783132553100586,-0.51,-2.05,3.55,4.13
2.1878700256347656,-0.25,-1.33,0.47,1.43
2.19716215133667,0.24,-0.41,-0.79,0.92
2.207200050354004,0.06,-0.69,0.0,0.69
2.2176451683044434,-0.3,-0.83,0.67,1.1
2.2286410331726074,-0.11,-0.03,0.36,0.37
2.237515926361084,0.14,1.12,-0.57,1.26
2.247525215148926,-0.23,1.16,-0.58,1.31
2.257719039916992,-0.78,1.03,0.15,1.3
2.272336959838867,-1.07,0.67,0.49,1.35
2.279008150100708,-0.81,-0.8,0.5,1.24
2.2879281044006348,1.16,0.13,0.19,1.18
2.2979180812835693,3.75,0.73,-1.3,4.03
2.3078689575195312,2.34,-0.56,-1.87,3.04
2.3179869651794434,2.05,0.7,-0.7,2.27
2.329531192779541,1.47,0.07,-1.2,1.89
2.338210105895996,0.77,0.05,0.0,0.77
2.3481812477111816,0.24,-0.3,0.74,0.83
2.3583641052246094,-0.18,-0.63,0.57,0.86
2.3722541332244873,-1.68,1.32,1.35,2.52
2.3798720836639404,-1.97,1.56,1.03,2.71
2.388573169708252,-1.62,1.7,0.38,2.37
2.398818016052246,-1.6,1.67,-0.36,2.34
2.4086852073669434,-0.84,2.13,-0.65,2.38
2.4188530445098877,0.22,1.39,-0.37,1.45
2.4304232597351074,1.47,1.01,-0.01,1.78
2.4391021728515625,2.07,0.38,0.02,2.1
2.449118137359619,1.64,0.19,-0.86,1.86
2.459221124649048,1.52,0.08,-1.65,2.24
2.472446918487549,1.52,-0.08,-1.77,2.33
2.4806981086730957,1.07,-0.72,-1.13,1.71
2.489445209503174,-0.11,-0.96,0.33,1.02
2.4994571208953857,-0.61,-0.94,1.27,1.69
2.50972318649292,-0.22,-1.6,1.08,1.94
2.5198750495910645,-0.73,-1.52,1.05,1.98
2.531156063079834,-1.02,-1.3,0.36,1.69
2.540037155151367,-1.09,-1.14,0.01,1.57
2.555767059326172,-1.25,-0.87,-0.59,1.63
2.559974193572998,-0.79,-0.58,0.0,0.98
2.570035934448242,-0.58,0.04,0.05,0.58
2.5813002586364746,0.31,0.44,0.3,0.61
2.590240001678467,1.02,-0.05,0.5,1.13
2.6007699966430664,1.68,0.49,-0.07,1.75
2.610483169555664,1.61,0.33,-0.84,1.84
2.620635986328125,2.76,-0.83,-0.53,2.93
2.6318769454956055,1.83,-0.68,-1.34,2.36
2.641080141067505,0.3,0.51,-0.6,0.84
2.6521410942077637,-0.68,1.88,0.83,2.16
2.6609411239624023,-1.39,1.62,1.28,2.48
2.6721839904785156,-0.79,0.23,0.42,0.92
2.682199001312256,0.73,0.08,0.34,0.8
2.691110134124756,0.58,0.59,0.6,1.02
2.7009971141815186,0.26,0.55,0.78,0.98
2.7113890647888184,-0.66,0.78,1.14,1.53
2.7214701175689697,-3.1,0.43,2.55,4.03
2.732715129852295,-1.11,0.96,-0.73,1.63
2.741774082183838,0.06,1.87,-1.65,2.49
2.752530097961426,-0.03,1.06,-0.74,1.29
2.761707067489624,0.13,0.5,-0.22,0.56
2.77278995513916,0.27,0.53,-0.53,0.79
2.7830562591552734,0.03,0.42,-0.45,0.61
2.7919459342956543,-0.56,0.06,0.15,0.58
2.8018441200256348,-0.64,-0.12,0.35,0.73
2.8121490478515625,-0.4,-0.18,0.39,0.58
2.822282075881958,-0.89,-0.41,-0.23,1.0
2.833996057510376,0.0,-0.25,0.84,0.87
2.842445135116577,0.35,-0.44,0.0,0.56
2.853562116622925,-0.18,-0.18,0.11,0.27
2.8625760078430176,2.3,1.03,0.02,2.52
2.8725571632385254,2.19,-0.06,-1.53,2.67
2.884352207183838,0.66,-0.67,-1.69,1.93
2.8926961421966553,-0.23,-1.32,-0.26,1.36
2.9028470516204834,0.31,-0.79,0.85,1.2
2.9128661155700684,1.45,-0.51,-0.08,1.53
2.922959089279175,0.82,-0.48,-0.92,1.32
2.9348702430725098,-0.9,-0.51,-1.02,1.45
2.9433231353759766,-1.96,0.27,-0.51,2.04
2.956973075866699,-2.99,0.14,-0.22,3.0
2.9633700847625732,-2.03,0.4,-0.29,2.08
2.9734349250793457,-0.41,0.94,0.32,1.07
2.98518705368042,0.29,0.28,1.19,1.25
2.993587017059326,0.86,0.44,1.3,1.61
3.0037002563476562,0.54,0.25,1.03,1.18
3.01370906829834,0.6,0.29,0.27,0.71
3.02384614944458,0.45,0.86,0.4,1.04
3.0355539321899414,-0.23,0.08,0.09,0.25
3.0439610481262207,-0.23,-0.18,-1.08,1.11
3.0568251609802246,-1.18,-0.68,-1.2,1.81
3.0640830993652344,-1.23,-0.76,0.11,1.45
3.074252128601074,-0.24,-0.14,0.43,0.51
3.085437059402466,0.71,0.27,-0.29,0.81
3.094196081161499,2.01,0.43,-0.6,2.14
3.104790210723877,2.56,1.22,-0.1,2.83
3.1143670082092285,2.76,1.95,0.68,3.44
3.124481201171875,1.71,0.24,0.41,1.77
3.1358580589294434,0.02,-0.83,-0.37,0.9
3.1450271606445312,-0.94,-0.08,-0.26,0.97
3.1551010608673096,-1.58,-0.46,-0.23,1.66
3.1649651527404785,-1.76,-1.98,0.02,2.64
3.175072193145752,-1.37,-1.56,0.75,2.2
3.1862740516662598,-0.22,0.2,0.36,0.46
3.195064067840576,0.45,0.32,-0.18,0.58
3.205240249633789,0.29,-0.18,-0.23,0.41
3.2151131629943848,0.05,-0.02,-0.21,0.21
3.225788116455078,-0.21,-0.01,-0.53,0.57
3.2379040718078613,-0.31,0.01,-0.69,0.75
3.2455310821533203,-0.14,0.03,-0.57,0.58
3.255852222442627,-0.01,-0.01,-0.19,0.19
3.265986919403076,0.91,0.22,-0.44,1.03
3.2760491371154785,0.85,0.12,0.13,0.86
3.2867300510406494,-0.34,-0.18,1.19,1.25
3.295866012573242,-1.22,-0.34,0.39,1.32
3.3059401512145996,-0.59,-0.16,-0.1,0.61
3.3159279823303223,0.26,0.05,0.06,0.27
3.3260390758514404,0.74,0.01,0.17,0.75
3.3372950553894043,1.19,-0.25,-1.58,1.99
3.3470871448516846,-3.04,-1.69,-4.42,5.62
3.356429100036621,-5.81,-0.87,1.19,5.99
3.366429090499878,-2.72,-0.71,3.06,4.15
3.376565933227539,-0.61,-0.92,0.29,1.14
3.3876609802246094,0.08,-0.77,-0.28,0.82
3.3965060710906982,1.75,-0.08,-0.48,1.81
3.406572103500366,2.24,0.16,0.06,2.24
3.4343061447143555,1.7,0.34,0.66,1.85
3.437087059020996,1.28,0.77,0.3,1.52
3.4434762001037598,1.17,1.13,0.01,1.62
3.449045181274414,0.38,0.78,0.18,0.88
3.4648971557617188,0.31,0.66,0.36,0.81
3.468074083328247,0.7,0.73,0.23,1.03
3.477808952331543,1.43,0.48,0.0,1.5
3.4898009300231934,1.31,0.2,-0.06,1.32
3.497918128967285,1.23,0.43,0.02,1.3
3.512578010559082,1.57,0.93,-0.23,1.83
3.5186209678649902,1.24,0.62,-0.32,1.42
3.5282890796661377,0.7,0.45,-0.18,0.85
3.540390968322754,-0.05,0.17,-0.06,0.18
3.5584449768066406,-0.64,-0.15,-0.01,0.65
3.5708632469177246,-1.0,-0.46,-0.21,1.12
3.574010133743286,-1.44,-0.87,-0.73,1.83
3.5788021087646484,-1.74,-1.14,-1.22,2.41
3.5910110473632812,-1.89,-0.91,0.19,2.1
3.5986790657043457,-0.92,-0.21,0.5,1.06
3.6119790077209473,0.47,0.07,0.06,0.47
3.618993043899536,1.06,0.07,0.07,1.06
3.6293060779571533,0.71,0.01,0.07,0.71
3.6413722038269043,-0.01,0.02,-0.04,0.04
3.660191059112549,-0.43,-0.13,-0.1,0.46
3.672375202178955,-0.45,-0.2,-0.13,0.5
3.67588210105896,-0.27,-0.12,-0.09,0.3
3.6793432235717773,0.01,0.0,-0.12,0.12
3.6915721893310547,0.54,0.44,0.53,0.87
3.699798107147217,0.41,-0.1,0.14,0.44
3.711487054824829,-0.15,-0.12,-0.65,0.67
3.7202200889587402,-0.33,0.07,-0.36,0.49
3.729994058609009,-0.23,-0.11,-0.3,0.39
3.7422709465026855,-0.07,-0.01,-0.12,0.13
3.7500710487365723,-0.04,0.02,-0.06,0.07
3.769656181335449,-0.05,-0.02,-0.28,0.28
3.773135185241699,-0.04,0.0,-0.19,0.19
3.7805252075195312,-2.72,-0.33,0.03,2.74
3.792418956756592,-3.4,-0.78,-1.1,3.65
3.800900936126709,2.27,1.07,0.91,2.66
3.811488151550293,2.05,0.62,0.44,2.18
3.8209009170532227,2.09,-0.4,0.67,2.23
3.8308029174804688,1.99,-0.16,-0.37,2.03
3.8427271842956543,1.0,0.47,-0.84,1.38
3.8586690425872803,-0.16,-0.26,-0.12,0.32
3.869880199432373,-1.2,-0.18,0.7,1.4
3.8730380535125732,-1.63,-0.12,0.32,1.66
3.8813071250915527,-1.02,-0.25,-0.65,1.23
3.8934669494628906,-0.04,0.03,-0.73,0.73
3.9015591144561768,0.36,0.07,-0.2,0.41
3.912933111190796,0.18,-0.01,0.05,0.18
3.921363115310669,-0.03,-0.01,0.05,0.05
3.9315481185913086,-0.06,-0.03,-0.03,0.07
3.9438681602478027,0.09,-0.01,-0.05,0.1
3.959428071975708,0.19,0.01,-0.03,0.19
3.97133207321167,0.12,-0.03,0.0,0.12
3.9746551513671875,-0.01,-0.08,-0.01,0.08
3.9820680618286133,-0.02,-0.02,-0.12,0.12
3.994096040725708,-0.01,0.0,-0.29,0.29
4.00186014175415,-0.14,-0.07,-0.27,0.31
4.0134382247924805,-0.22,-0.04,-0.09,0.24
4.022367000579834,-0.16,-0.02,-0.1,0.18
4.032879114151001,0.1,0.02,-0.1,0.14
4.045603036880493,0.32,0.03,-0.04,0.32
4.061395168304443,0.37,0.03,0.02,0.37
4.074455261230469,0.2,0.05,0.0,0.2
4.0781731605529785,-0.08,0.0,-0.1,0.12
4.082791090011597,-0.19,-0.05,-0.08,0.21
4.09576416015625,-0.16,-0.05,-0.03,0.17
4.103155136108398,-0.09,-0.02,-0.06,0.11
4.116344928741455,-0.08,0.0,-0.12,0.14
4.123309135437012,-0.02,-0.01,-0.08,0.08
4.133453130722046,0.15,0.01,-0.06,0.16
4.147815227508545,0.23,0.06,0.02,0.23
4.153430938720703,0.17,0.02,0.12,0.2
4.1758131980896,0.02,0.0,0.05,0.05
4.17943811416626,-0.09,-0.06,0.02,0.1
4.18366003036499,-0.07,-0.09,0.0,0.11
4.196100234985352,-0.02,-0.04,-0.02,0.04
4.203984260559082,0.05,0.01,-0.23,0.23
4.217642068862915,0.01,-0.03,-0.27,0.27
4.224107265472412,-0.01,-0.01,-0.18,0.18
4.2342209815979,-0.02,0.0,-0.13,0.13
4.249032020568848,-0.01,-0.01,0.0,0.01
4.254357099533081,0.03,0.03,0.05,0.06
4.2776899337768555,0.08,0.01,0.01,0.08
4.282360076904297,0.12,-0.02,0.08,0.14
4.286118030548096,0.09,0.03,0.09,0.13
4.2970499992370605,-0.07,-0.05,0.19,0.2
4.305386066436768,-0.23,-0.06,-0.11,0.26
4.3186259269714355,-0.27,-0.04,-0.17,0.32
4.324892997741699,-0.14,-0.03,-0.11,0.18
4.335081100463867,0.0,-0.02,-0.05,0.05
4.3492231369018555,0.1,0.0,-0.06,0.11
4.364190101623535,0.14,0.0,-0.03,0.14
4.376884937286377,0.11,0.03,-0.01,0.11
4.380162239074707,0.05,0.01,-0.05,0.07
4.385179042816162,-0.07,-0.04,-0.13,0.15
4.397566080093384,-0.2,-0.05,-0.32,0.38
4.405951976776123,-0.29,-0.05,-0.29,0.41
4.417186260223389,-0.33,-0.03,-0.17,0.37
4.425670146942139,-0.25,-0.05,-0.14,0.29
4.435658931732178,-0.06,-0.01,-0.13,0.14
4.4494850635528564,0.02,-0.01,-0.05,0.05
4.463484048843384,0.04,0.01,0.07,0.08
4.475675106048584,-0.02,0.01,0.15,0.15
4.4786882400512695,-0.05,-0.02,0.27,0.27
4.485947132110596,-0.05,0.02,0.23,0.23
4.498028039932251,-0.13,0.0,-0.03,0.13
4.506127119064331,-0.26,-0.06,-0.17,0.31
4.5172741413116455,-0.29,-0.07,-0.21,0.36
4.526154041290283,-0.29,-0.04,-0.22,0.36
4.536584138870239,-0.22,-0.08,-0.14,0.27
4.548570156097412,-0.07,-0.04,-0.09,0.12
4.56418514251709,0.08,-0.03,0.03,0.09
4.576158046722412,0.12,0.03,0.11,0.16
4.579252243041992,0.16,0.01,0.09,0.18
4.586812973022461,0.13,-0.04,0.11,0.17
4.599071025848389,0.17,0.05,-0.05,0.18
4.6070709228515625,0.15,0.04,-0.31,0.34
4.618332147598267,0.12,-0.02,-0.36,0.38
4.627106189727783,0.06,-0.03,-0.2,0.21
4.6373419761657715,-0.01,0.0,-0.04,0.04
4.649257183074951,-0.05,-0.02,0.02,0.05
4.664086103439331,-0.01,0.0,-0.06,0.06
4.676258087158203,-0.1,0.03,-0.12,0.15
4.679450035095215,-0.32,-0.09,0.05,0.33
4.688594102859497,-0.28,-0.03,0.03,0.28
4.700011253356934,-0.18,0.03,-0.39,0.43
4.707710266113281,-0.17,-0.05,-0.4,0.43
4.719311237335205,-0.13,-0.02,-0.14,0.19
4.72799825668335,-0.08,0.03,-0.07,0.11
4.739218235015869,-0.12,-0.08,0.1,0.17
4.750368118286133,-0.13,-0.19,0.5,0.55
4.7715020179748535,0.31,0.01,0.51,0.59
4.789082050323486,0.69,0.09,0.37,0.78
4.795152187347412,0.68,0.02,0.13,0.69
4.799720048904419,0.4,-0.02,-0.14,0.42
4.811738967895508,0.09,-0.02,-0.18,0.2
4.820237159729004,-0.04,0.02,-0.27,0.27
4.831223964691162,-0.07,0.03,-0.27,0.28
4.8338751792907715,0.02,0.02,-0.16,0.16
4.839868068695068,0.16,0.03,-0.04,0.16
4.850774049758911,0.27,0.04,-0.05,0.27
4.862998008728027,0.33,0.04,0.01,0.33
4.873214244842529,0.36,0.03,0.18,0.4
4.879183053970337,0.27,0.05,-0.15,0.31
4.889101028442383,0.08,0.01,-0.39,0.39
4.90099310874939,-0.12,-0.03,-0.18,0.21
4.909330129623413,-0.13,-0.05,0.14,0.19
4.919408082962036,0.01,-0.07,0.14,0.15
4.9294819831848145,0.1,-0.06,0.0,0.11
4.941222190856934,0.01,-0.09,0.09,0.12
4.9512529373168945,-0.16,-0.01,0.07,0.17
4.962225914001465,-0.28,0.03,-0.09,0.29
4.97238302230835,-0.26,0.02,-0.19,0.32
4.979979038238525,-0.09,-0.01,-0.27,0.28
4.989990234375,0.1,0.04,-0.55,0.56
5.001733064651489,0.13,-0.03,-0.53,0.54
5.010119915008545,0.08,-0.17,-0.17,0.25
5.0201802253723145,0.13,-0.07,0.12,0.19
5.029962062835693,0.2,-0.03,0.13,0.24
5.041459083557129,0.27,0.03,0.24,0.36
5.052259922027588,0.26,0.08,0.18,0.32
5.062250137329102,0.23,0.06,0.0,0.23
5.072158098220825,0.2,0.0,-0.08,0.21
5.08063006401062,0.18,0.06,0.36,0.4
5.09074592590332,-0.03,0.04,-0.03,0.05
5.101481914520264,-0.15,-0.1,-0.39,0.42
5.110573053359985,0.09,-0.09,-0.13,0.18
5.121070146560669,0.23,-0.02,-0.12,0.26
5.1311280727386475,0.19,-0.04,-0.03,0.19
5.14260196685791,0.17,-0.02,0.25,0.3
5.151916980743408,0.16,0.07,0.07,0.18
5.161657094955444,0.09,0.14,0.03,0.16
5.172080039978027,-0.09,0.1,-0.13,0.18
5.181335926055908,-0.15,0.09,-0.43,0.46
5.191375255584717,-0.12,0.04,-0.59,0.6
5.203764915466309,-0.06,-0.07,-0.62,0.62
5.211708068847656,0.02,-0.09,-0.3,0.31
5.221789121627808,0.01,-0.07,-0.34,0.34
5.232089996337891,0.05,0.02,-0.21,0.21
5.243412017822266,0.2,0.13,-0.07,0.24
5.252805233001709,0.32,0.15,-0.05,0.35
5.2622809410095215,0.34,0.04,0.15,0.37
5.272304058074951,0.34,0.0,0.27,0.43
5.282422065734863,0.3,0.03,0.28,0.41
5.292280197143555,0.22,-0.02,0.23,0.31
5.304306983947754,0.13,-0.09,-0.02,0.15
5.312698125839233,0.02,-0.16,0.07,0.17
5.322504997253418,-0.15,-0.26,0.37,0.47
5.332710266113281,-0.22,-0.17,0.39,0.47
5.342700004577637,-0.16,-0.01,0.33,0.36
5.354493141174316,-0.04,0.03,0.24,0.24
5.362912178039551,0.02,-0.02,0.21,0.21
5.372591018676758,-0.08,-0.02,0.18,0.19
5.382699966430664,-0.26,-0.02,-0.02,0.26
5.393153190612793,-0.52,-0.12,-0.35,0.63
5.405422210693359,-0.77,-0.26,-0.33,0.87
5.413347244262695,-0.75,-0.27,-0.05,0.79
5.4229700565338135,-0.52,-0.13,0.06,0.53
5.433640003204346,-0.24,-0.02,0.01,0.24
5.44734525680542,0.04,0.02,0.12,0.12
5.454168081283569,0.17,0.02,0.15,0.22
5.463504076004028,0.17,0.03,0.06,0.18
5.47373104095459,0.32,0.13,-0.03,0.34
5.483885049819946,0.19,0.05,-0.33,0.38
5.493916034698486,-0.23,-0.06,-0.45,0.5
5.505481243133545,-0.56,-0.09,-0.35,0.66
5.513843059539795,-0.59,-0.11,0.09,0.6
5.530060052871704,-0.29,-0.08,0.3,0.42
5.533920049667358,0.18,0.03,0.21,0.27
5.544915199279785,0.52,0.1,0.08,0.53
5.5629050731658936,0.52,0.09,-0.16,0.55
5.564391136169434,0.13,0.0,-0.4,0.42
5.575145244598389,-0.28,-0.04,-0.58,0.64
5.5851521492004395,-0.52,-0.07,-0.47,0.7
5.5949859619140625,-0.5,-0.08,-0.21,0.54
5.60627007484436,-0.3,-0.02,-0.09,0.31
5.615721225738525,0.04,0.01,-0.01,0.04
5.628952980041504,0.28,-0.03,0.29,0.4
5.6355299949646,0.33,0.0,0.68,0.75
5.645263195037842,0.18,0.05,0.45,0.48
5.660834074020386,-0.15,-0.01,-0.26,0.3
5.665904998779297,-0.48,-0.09,-0.53,0.72
5.68126916885376,-0.51,-0.1,-0.38,0.64
5.686253070831299,-0.26,-0.08,-0.28,0.39
5.696211099624634,0.04,0.0,-0.19,0.19
5.708449125289917,0.31,0.04,0.21,0.37
5.716313123703003,0.42,0.03,0.82,0.92
5.725572109222412,0.33,0.0,0.99,1.04
5.746310234069824,0.03,-0.03,0.82,0.82
5.749500036239624,-0.29,-0.02,0.31,0.42
5.757993221282959,-0.55,-0.07,-0.46,0.72
5.766499996185303,-0.69,-0.09,-0.91,1.14
5.7779130935668945,-0.77,-0.03,-0.97,1.23
5.786567211151123,-0.71,0.08,-0.82,1.08
5.796741008758545,-0.48,0.09,-0.58,0.75
5.807172060012817,0.03,-0.03,0.08,0.09
5.816777229309082,0.81,-0.04,0.9,1.21
5.82695198059082,1.24,-0.01,1.43,1.89
5.837136268615723,0.97,0.03,1.26,1.59
5.847074031829834,0.2,0.01,0.22,0.29
5.858957052230835,-0.44,-0.1,-0.62,0.76
5.867102146148682,-0.72,-0.11,-0.85,1.11
5.876862049102783,-0.61,0.05,-0.98,1.15
5.8869099617004395,-0.32,0.15,-1.18,1.23
5.89707612991333,-0.08,0.07,-0.72,0.72
5.909543037414551,0.15,-0.01,0.15,0.21
5.917758941650391,0.34,-0.06,0.9,0.96
5.927371025085449,0.27,-0.04,1.24,1.26
5.946325063705444,-0.08,-0.05,0.91,0.91
5.9479451179504395,-0.39,-0.07,0.18,0.43
5.958412170410156,-0.39,0.01,-0.34,0.51
5.967584133148193,0.01,0.15,-0.67,0.68
5.977622985839844,0.11,0.02,-0.95,0.95
5.988592147827148,0.11,0.04,-1.12,1.12
5.9982781410217285,0.07,0.05,-0.6,0.6
6.00882625579834,0.02,0.01,0.08,0.08
6.018555164337158,0.06,-0.01,0.47,0.47
6.028120040893555,0.14,-0.01,0.62,0.63
6.05167293548584,0.12,-0.03,0.44,0.45
6.056050062179565,0.26,-0.02,0.23,0.34
6.061888217926025,0.44,0.04,-0.19,0.48
6.0683369636535645,0.57,0.02,-0.25,0.62
6.078248977661133,0.6,-0.01,-0.12,0.61
6.0885820388793945,0.45,-0.04,-0.13,0.47
6.098674058914185,0.19,-0.16,0.02,0.24
6.109899997711182,0.12,-0.1,0.18,0.23
6.118730068206787,-0.15,-0.05,0.26,0.3
6.12885308265686,-0.51,-0.01,0.37,0.63
6.142764091491699,-0.66,0.1,0.0,0.66
6.14900803565979,-0.64,0.06,-0.63,0.9
6.160135269165039,-0.4,0.03,-0.82,0.91
6.169186115264893,0.07,0.09,-0.85,0.85
6.17926025390625,0.69,0.02,-0.63,0.93
6.189300060272217,0.96,0.01,-0.23,0.98
6.199470043182373,0.78,0.05,0.18,0.8
6.210796117782593,0.43,-0.04,0.42,0.6
6.219679117202759,0.08,-0.1,0.71,0.72
6.229788064956665,-0.09,0.09,1.06,1.06
6.243312120437622,-0.06,0.13,0.56,0.57
6.249939918518066,0.08,0.0,-0.28,0.29
6.261381149291992,0.36,0.02,-0.47,0.59
6.270071983337402,0.61,0.06,-0.12,0.62
6.280124187469482,0.74,0.06,0.03,0.74
6.2903032302856445,0.69,0.06,0.09,0.69
6.300506114959717,0.46,0.09,0.25,0.53
6.311936140060425,0.07,0.03,0.4,0.4
6.320584058761597,-0.31,-0.08,0.26,0.41
6.330661058425903,-0.58,-0.11,0.04,0.59
6.343695163726807,-0.65,-0.08,0.06,0.65
6.350783109664917,-0.62,-0.14,-0.14,0.65
6.362246036529541,-0.6,-0.12,-0.26,0.66
6.370985984802246,-0.59,-0.07,-0.25,0.64
6.381118059158325,-0.52,-0.08,-0.46,0.69
6.39115309715271,-0.37,-0.11,-0.69,0.79
6.4010961055755615,-0.22,-0.06,-1.05,1.07
6.412584066390991,-0.07,-0.07,-0.96,0.96
6.421759128570557,0.0,-0.03,-0.3,0.3
6.431462049484253,0.04,0.04,0.35,0.35
6.44417405128479,0.02,0.07,0.76,0.76
6.451580047607422,0.02,0.05,0.91,0.91
6.463003158569336,0.14,0.04,0.8,0.81
6.4722630977630615,0.21,0.03,0.6,0.63
6.481782913208008,0.11,-0.03,0.42,0.43
6.491882085800171,-0.21,-0.09,0.37,0.43
6.501986026763916,-0.52,-0.13,0.49,0.72
6.51353907585144,-0.55,-0.17,0.56,0.8
6.522449970245361,-0.29,-0.15,0.64,0.71
6.5336079597473145,-0.04,-0.08,0.62,0.62
6.544419050216675,0.01,0.06,0.57,0.57
6.55246114730835,-0.1,-0.02,0.52,0.52
6.563667058944702,-0.19,-0.07,-0.02,0.2
6.572522163391113,-0.35,-0.02,-0.33,0.48
6.5826170444488525,-0.52,-0.13,-0.37,0.65
6.592823028564453,-0.99,-0.31,-0.56,1.17
6.602905035018921,-1.18,-0.29,-0.36,1.26
6.614314079284668,-1.01,-0.38,0.08,1.08
6.622951984405518,-0.69,-0.37,0.59,0.98
6.634436130523682,-0.18,-0.12,0.52,0.56
6.644132137298584,0.38,0.08,0.13,0.4
6.653264999389648,0.34,-0.29,0.16,0.47
6.664608955383301,0.15,0.25,0.47,0.55
6.67351508140564,0.0,0.6,0.22,0.63
6.683440208435059,-0.26,0.53,-0.75,0.95
6.693758964538574,-1.04,0.04,-0.71,1.25
6.703649997711182,-1.28,0.05,-0.53,1.38
6.715145111083984,-0.77,0.17,-1.06,1.32
6.723910093307495,-0.47,0.11,-1.27,1.35
6.7350170612335205,-0.12,0.11,-1.15,1.16
6.744246959686279,0.23,0.41,-1.02,1.12
6.754058122634888,0.03,0.24,-0.68,0.72
6.765419960021973,-0.31,-0.14,-0.19,0.38
6.774383068084717,0.16,-0.07,-0.28,0.33
6.784261226654053,0.97,0.05,-0.01,0.97
6.79442024230957,1.23,0.18,0.42,1.31
6.804439067840576,1.01,0.21,0.68,1.23
6.815770149230957,0.56,0.15,0.64,0.86
6.824644088745117,0.05,0.03,0.39,0.39
6.83571720123291,0.09,0.01,0.1,0.13
6.845060110092163,0.27,-0.12,-0.67,0.73
6.855299949645996,0.21,-0.27,-1.25,1.29
6.866302013397217,0.12,-0.18,-0.99,1.01
6.875057220458984,-0.16,-0.04,-0.65,0.67
6.8850791454315186,-0.36,0.02,-0.06,0.36
6.895359039306641,-0.18,0.07,0.51,0.54
6.905601978302002,0.04,-0.1,0.81,0.81
6.916746139526367,0.23,-0.16,0.78,0.82
6.925506114959717,0.43,-0.27,0.28,0.57
6.935537099838257,0.49,-0.41,-0.19,0.66
6.9456281661987305,0.32,-0.46,-0.56,0.79
6.9556732177734375,0.47,-0.48,-0.61,0.9
6.967142105102539,0.54,-0.25,-0.56,0.81
6.975950241088867,0.06,0.04,-0.29,0.29
6.986055135726929,-0.67,0.19,0.16,0.71
6.9960551261901855,-0.79,0.13,0.39,0.89
7.0060601234436035,-0.44,0.13,0.56,0.72
7.017822265625,0.01,0.16,0.08,0.17
7.026482105255127,0.36,0.04,-0.22,0.42
7.036293983459473,0.58,-0.11,-0.38,0.7
7.046513080596924,0.43,-0.1,-0.54,0.69
7.056538105010986,0.04,-0.05,-0.49,0.49
7.0680460929870605,-0.25,0.06,-0.3,0.39
7.076880931854248,-0.41,0.16,-0.09,0.44
7.086729049682617,-0.29,0.15,0.08,0.33
7.096857070922852,-0.19,0.21,0.17,0.33
7.106943130493164,-0.22,0.2,0.0,0.29
7.118464946746826,-0.2,0.17,-0.21,0.33
7.127179145812988,-0.19,0.25,-0.43,0.53
7.137214183807373,-0.31,0.21,-0.79,0.87
7.147243976593018,-0.47,0.12,-0.68,0.83
7.157518148422241,-0.63,0.23,-0.26,0.71
7.168698072433472,-0.73,0.27,0.05,0.77
7.177560091018677,-0.72,0.26,0.23,0.79
7.187518119812012,-0.81,0.42,0.19,0.93
7.197696208953857,-0.82,0.44,0.26,0.96
7.207843065261841,-0.66,0.39,0.07,0.76
7.219192981719971,-0.68,0.36,-0.22,0.8
7.2280049324035645,-0.87,0.67,-0.67,1.28
7.243669033050537,-1.05,0.93,-0.77,1.6
7.24802303314209,-1.11,0.91,-0.86,1.67
7.258172988891602,-1.01,0.81,-0.85,1.54
7.269457101821899,-0.77,1.05,-0.39,1.35
7.278451919555664,-0.78,1.49,-0.17,1.69
7.288754940032959,-1.14,1.94,-0.29,2.26
7.298583030700684,-1.59,2.37,-0.23,2.86
7.308573246002197,-1.94,2.54,-0.23,3.2
7.320157051086426,-1.99,2.81,-0.26,3.45
7.330424070358276,-1.97,2.71,0.37,3.37
7.3444671630859375,-1.92,2.65,0.4,3.29
7.348847150802612,-1.99,2.98,0.36,3.6
7.359071254730225,-2.46,3.06,0.46,3.95
7.370428085327148,-2.89,2.99,0.02,4.15
7.379178047180176,-3.05,3.07,-0.64,4.37
7.3891191482543945,-2.88,3.44,-1.35,4.68
7.399310111999512,-2.46,4.0,-2.0,5.1
7.409430027008057,-1.95,4.17,-2.9,5.44
7.42080020904541,-1.5,4.72,-3.59,6.11
7.430734157562256,-1.81,4.49,-3.59,6.02
7.444654941558838,-2.42,3.73,-3.34,5.56
7.449656009674072,-2.3,3.61,-2.75,5.08
7.459950923919678,-2.32,3.34,-3.01,5.05
7.471246242523193,-3.8,0.94,-0.64,3.96
7.479985237121582,-5.93,-3.58,-0.18,6.92
7.489999055862427,-3.9,-0.77,1.1,4.12
7.500188112258911,-3.58,0.69,-0.13,3.64
7.510328054428101,-6.25,-0.92,-0.94,6.38
7.522140026092529,-8.59,-2.18,0.54,8.87
7.531634092330933,-9.74,-2.86,1.23,10.22
7.544405937194824,-9.71,-2.98,0.98,10.2
7.550465106964111,-8.85,-2.45,0.56,9.19
7.560826063156128,-8.0,-1.92,0.48,8.24
7.572379112243652,-7.06,-1.79,0.75,7.32
7.580815076828003,-6.23,-1.76,1.12,6.57
7.590845108032227,-5.89,-1.55,1.46,6.26
7.600985050201416,-5.77,-1.23,1.67,6.13
7.611027240753174,-5.58,-0.86,1.57,5.86
7.622867107391357,-5.28,-0.39,1.4,5.47
7.632483005523682,-4.91,-0.05,1.29,5.07
7.6454010009765625,-4.57,0.05,1.16,4.71
7.651175022125244,-4.32,0.05,1.16,4.47
7.661675930023193,-4.08,0.07,1.19,4.25
7.673234939575195,-3.64,0.35,1.3,3.88
7.68162202835083,-2.91,0.92,0.92,3.18
7.691718101501465,-2.13,1.49,0.63,2.67
7.701718091964722,-1.6,1.69,0.69,2.42
7.71197509765625,-1.39,1.58,0.77,2.24
7.723567008972168,-1.32,1.45,0.78,2.11
7.7320451736450195,-1.21,1.46,0.71,2.02
7.74508810043335,-1.05,1.52,0.37,1.88
7.752071142196655,-0.78,1.63,-0.11,1.81
7.762197017669678,-0.39,1.87,-0.32,1.93
7.77337121963501,0.0,2.02,-0.32,2.04
7.782392978668213,0.16,1.97,-0.06,1.97
7.792577266693115,0.35,1.8,0.1,1.83
7.802588939666748,0.46,1.89,0.03,1.94
7.812802076339722,0.54,2.14,-0.02,2.2
7.824014186859131,0.85,2.45,-0.07,2.59
7.832881927490234,1.14,2.62,-0.56,2.91
7.846395969390869,1.78,2.83,-0.67,3.4
7.852938175201416,2.81,3.21,-0.64,4.31
7.863358974456787,3.8,3.05,-0.42,4.89
7.874601125717163,4.94,2.48,0.12,5.52
7.883261203765869,5.59,2.33,0.69,6.09
7.893326044082642,5.8,2.36,0.49,6.28
7.903420925140381,6.01,2.31,0.27,6.44
7.913602113723755,6.33,2.04,0.42,6.66
7.92519211769104,6.56,1.62,0.79,6.8
7.933707237243652,6.73,1.25,0.96,6.91
7.946866989135742,6.76,1.09,0.5,6.86
7.953757047653198,7.22,1.1,-0.05,7.3
7.963932037353516,8.22,1.04,-0.86,8.33
7.975464105606079,9.6,0.61,-1.17,9.69
7.984081268310547,10.66,-0.82,-0.31,10.69
7.994139194488525,10.77,-1.34,0.16,10.85
8.00425100326538,10.04,-0.41,-0.68,10.07
8.014349937438965,8.32,2.08,-2.31,8.88
8.025865077972412,2.44,5.33,-0.45,5.87
8.034434080123901,-0.68,-0.92,1.77,2.1
8.047568082809448,4.19,-6.82,0.06,8.0
8.054487228393555,8.71,-1.98,-0.67,8.95
8.064850091934204,6.22,7.66,-1.37,9.96
8.076200008392334,0.98,8.95,4.57,10.09
8.084927082061768,-2.18,0.1,3.97,4.53
8.095010042190552,-1.88,-4.22,1.11,4.75
8.105497121810913,-2.7,-0.34,-1.69,3.2
8.115155220031738,0.16,1.15,-2.26,2.54
8.12789011001587,4.0,1.24,-1.12,4.33
8.135353088378906,6.02,2.2,-2.56,6.9
8.14851713180542,7.03,2.6,-4.72,8.85
8.155592918395996,7.32,2.66,0.33,7.79
8.165528059005737,5.82,1.66,1.53,6.24
8.176939010620117,4.01,1.16,0.82,4.25
8.185656070709229,2.66,1.03,0.43,2.88
8.19576907157898,1.45,0.46,-0.39,1.57
8.205708026885986,0.51,0.01,0.19,0.54
8.215963125228882,-0.07,-0.04,0.38,0.38
8.228546142578125,-0.34,0.01,0.13,0.36
8.236133098602295,-0.41,0.03,0.02,0.41
8.248510122299194,-0.32,-0.04,-0.03,0.32
8.256016254425049,-0.04,-0.15,-0.12,0.19
8.266345024108887,0.09,-0.14,-0.17,0.23
8.277758121490479,0.05,-0.24,-0.1,0.26
8.286464214324951,0.16,-0.04,-0.31,0.35
8.296617984771729,0.35,0.39,-0.32,0.61
8.306687116622925,0.3,0.32,-0.42,0.6
8.316731929779053,0.23,0.12,-0.42,0.49
8.329365253448486,0.05,0.1,-0.4,0.41
8.337019920349121,-0.16,0.03,0.03,0.16
8.349617958068848,-0.21,-0.03,0.28,0.35
8.35705304145813,-0.12,-0.11,0.11,0.19
8.367156982421875,-0.09,-0.01,-0.16,0.18
8.378452062606812,0.22,0.3,-0.37,0.52
8.387301921844482,0.38,0.12,-0.61,0.72
8.397401094436646,0.4,0.03,-0.48,0.62
8.407514095306396,0.28,0.08,-0.48,0.56
8.417681217193604,0.26,0.01,-0.47,0.53
8.430655002593994,-0.01,0.0,-0.21,0.21
8.437801122665405,-0.34,0.1,0.23,0.42
8.451233148574829,-0.42,-0.07,-0.12,0.44
8.45801305770874,-0.77,-0.24,-0.18,0.82
8.46794319152832,-0.77,0.09,-0.24,0.81
8.479358196258545,-0.25,0.17,-0.31,0.43
8.48864221572876,0.15,-0.15,-0.22,0.3
8.498217105865479,0.22,-0.17,0.24,0.36
8.508477210998535,-0.05,0.01,0.66,0.66
8.51841115951538,-0.61,0.22,0.59,0.87
8.529920101165771,-1.2,0.28,0.05,1.23
8.544925212860107,-1.28,0.37,-0.17,1.34
8.55171513557434,-1.08,0.39,-0.25,1.17
8.558760166168213,-0.9,0.42,-0.3,1.03
8.568791151046753,-0.93,0.41,-0.22,1.03
8.580305099487305,-0.78,0.34,0.12,0.85
8.588941097259521,-0.61,0.06,0.99,1.16
8.59903621673584,-0.7,-0.15,1.02,1.24
8.609123229980469,-0.93,0.16,0.61,1.12
8.619140148162842,-0.93,0.54,0.43,1.15
8.630702018737793,-0.62,0.92,-0.38,1.17
8.644848108291626,-0.01,1.28,-0.98,1.61
8.652101039886475,-0.63,1.32,-0.55,1.56
8.659546136856079,-1.72,1.22,-0.31,2.13
8.66962194442749,-2.42,1.24,0.01,2.71
8.681114196777344,-2.67,1.34,0.26,2.99
8.689880132675171,-2.68,1.15,0.36,2.93
8.699842929840088,-2.32,1.39,-0.01,2.7
8.710036039352417,-1.81,2.13,-0.16,2.79
8.720173120498657,-1.54,2.77,-0.41,3.19
8.731842994689941,-1.7,2.99,-0.93,3.56
8.745457172393799,-1.97,3.33,-0.75,3.94
8.752615928649902,-2.23,3.89,0.01,4.48
8.760488986968994,-2.43,4.81,0.6,5.42
8.770418167114258,-2.96,5.61,0.65,6.37
8.781739234924316,-3.84,6.6,0.42,7.64
8.790637016296387,-5.15,7.61,1.04,9.24
8.800615072250366,-6.41,8.0,1.92,10.42
8.810827255249023,-7.0,8.02,0.16,10.64
8.820909023284912,-7.36,7.56,-0.26,10.55
8.832082033157349,-6.95,7.08,-0.26,9.92
8.844802141189575,-5.93,6.2,-0.66,8.6
8.85158395767212,-4.97,4.6,-0.48,6.78
8.861202239990234,-3.5,5.24,-1.5,6.47
8.87139892578125,-2.77,5.12,-0.67,5.85
8.882696151733398,-3.51,2.52,0.1,4.32
8.891569137573242,-4.04,0.1,0.08,4.04
8.90153694152832,-2.98,0.24,-0.81,3.09
8.911649227142334,-2.35,3.58,1.53,4.54
8.928719997406006,-6.42,-0.15,1.53,6.6
8.933116912841797,-9.53,-2.78,2.1,10.14
8.941747188568115,-10.48,-2.53,2.93,11.17
8.951900959014893,-10.15,-2.01,2.16,10.57
8.96194314956665,-9.37,-2.23,1.48,9.74
8.972350120544434,-8.36,-2.62,1.53,8.89
8.983338117599487,-7.2,-2.78,1.76,7.91
8.992311000823975,-6.19,-2.89,1.97,7.1
9.00232219696045,-5.54,-2.96,2.04,6.6
9.012522220611572,-5.08,-2.64,1.93,6.04
9.024133205413818,-4.91,-2.05,1.58,5.55
9.034019947052002,-4.92,-1.49,1.39,5.32
9.045202255249023,-4.9,-1.12,1.18,5.16
9.052658081054688,-4.73,-0.77,1.09,4.91
9.062886238098145,-4.33,-0.22,0.78,4.4
9.072866916656494,-3.83,0.28,0.32,3.85
9.084429264068604,-3.26,0.58,-0.22,3.31
9.093174934387207,-2.54,0.84,-0.63,2.74
9.103195190429688,-1.85,1.14,-0.9,2.35
9.11338210105896,-1.44,1.42,-1.29,2.39
9.124721050262451,-1.33,1.64,-1.71,2.71
9.134951114654541,-1.44,1.78,-1.87,2.95
9.145556926727295,-1.53,1.86,-1.94,3.09
9.153686046600342,-1.48,1.96,-2.17,3.27
9.163732051849365,-1.2,2.04,-2.39,3.36
9.17392611503601,-0.82,2.14,-2.55,3.42
9.185189247131348,-0.47,2.21,-2.78,3.58
9.194037914276123,-0.25,2.29,-2.96,3.75
9.203958988189697,0.0,2.4,-3.01,3.84
9.21419620513916,0.56,2.77,-3.21,4.27
9.225522994995117,1.33,3.22,-3.44,4.89
9.235578060150146,2.03,3.31,-3.59,5.28
9.24514102935791,2.69,3.39,-3.73,5.71
9.254347085952759,3.43,3.48,-3.63,6.08
9.264458179473877,3.91,3.4,-3.51,6.25
9.274646043777466,3.97,3.19,-3.36,6.1
9.285989046096802,3.65,2.91,-3.1,5.6
9.294861078262329,3.36,2.72,-2.7,5.09
9.305110931396484,3.35,2.53,-2.29,4.78
9.31496000289917,3.23,2.12,-2.17,4.43
9.328464984893799,3.08,1.98,-2.11,4.22
9.336308002471924,3.26,2.04,-1.98,4.32
9.345177173614502,3.85,1.63,-1.89,4.58
9.355562210083008,5.2,1.99,-2.02,5.92
9.365271091461182,7.46,3.26,-2.18,8.42
9.375524997711182,9.52,3.29,-1.85,10.24
9.386780261993408,10.21,2.22,-1.27,10.52
9.39578104019165,10.41,1.25,-0.94,10.52
9.405704021453857,10.59,1.0,-0.73,10.66
9.415884017944336,10.33,0.9,-0.33,10.37
9.428603172302246,9.34,0.52,0.14,9.35
9.437159061431885,8.73,0.38,0.4,8.74
9.445943117141724,8.66,0.4,0.32,8.67
9.456079959869385,8.61,0.43,0.64,8.64
9.466267108917236,8.34,0.88,1.28,8.48
9.476303100585938,3.59,12.7,-0.29,13.2
9.487726211547852,-5.83,15.08,3.64,16.57
9.496805191040039,3.04,-5.85,10.57,12.45
9.506539106369019,6.15,-7.57,-3.42,10.33
9.516704082489014,0.92,1.8,-2.8,3.45
9.526716232299805,-2.09,2.4,5.22,6.11
9.538533210754395,-2.04,-2.9,3.31,4.85
9.547065258026123,-1.35,-2.55,0.55,2.93
9.557060241699219,-0.94,-0.23,2.46,2.64
9.567126035690308,2.07,0.24,3.8,4.33
9.577057123184204,5.32,0.89,3.43,6.39
9.588665962219238,6.18,3.2,0.19,6.96
9.597306251525879,6.98,3.08,-3.95,8.59
9.607625007629395,7.7,2.14,-6.03,10.01
9.617337226867676,7.78,2.31,-2.96,8.63
9.627514123916626,6.02,2.55,2.22,6.9
9.645205974578857,3.5,1.77,0.52,3.95
9.647526264190674,2.07,0.34,0.27,2.11
9.657745122909546,1.96,0.42,-0.45,2.05
9.667734146118164,1.41,0.36,-0.48,1.53
9.677895069122314,0.59,0.26,1.37,1.51
9.690158128738403,0.29,0.29,1.98,2.02
9.697996139526367,0.59,0.17,1.04,1.2
9.707972049713135,0.86,0.22,0.03,0.88
9.719404220581055,0.93,0.4,-0.97,1.4
9.728689193725586,0.72,0.16,-1.14,1.35
9.740312099456787,0.47,-0.12,-1.15,1.24
9.748373985290527,0.12,-0.07,-1.08,1.08
9.7586989402771,-0.34,0.05,-0.93,0.99
9.768490076065063,-0.88,-0.13,-0.57,1.05
9.77866506576538,-1.3,-0.21,0.21,1.33
9.790326118469238,-1.34,-0.23,0.55,1.46
9.798810958862305,-0.86,-0.25,0.3,0.94
9.808884143829346,-0.29,0.01,-0.1,0.3
9.820397138595581,0.18,0.14,-0.28,0.36
9.82891321182251,0.38,0.2,-0.55,0.69
9.840392112731934,0.31,0.03,-0.45,0.54
9.849256992340088,0.1,-0.16,-0.15,0.24
9.859340190887451,-0.09,-0.22,0.15,0.28
9.869247913360596,-0.18,0.02,0.21,0.27
9.879467010498047,-0.31,0.13,0.09,0.34
9.890665054321289,-0.4,0.18,-0.07,0.44
9.899701118469238,-0.42,0.13,-0.13,0.45
9.909724235534668,-0.31,0.16,-0.15,0.37
9.921000003814697,-0.37,0.04,-0.28,0.46
9.929692268371582,-0.5,-0.11,-0.43,0.66
9.940941095352173,-0.64,-0.09,-0.2,0.67
9.95003604888916,-0.61,-0.05,0.1,0.62
9.960138082504272,-0.25,0.03,0.25,0.35
9.970123052597046,0.01,-0.01,0.34,0.34
9.980298042297363,0.1,-0.06,0.23,0.25
9.991934061050415,0.02,0.01,-0.08,0.08
10.00052809715271,-0.14,0.05,-0.39,0.41
10.010473251342773,-0.14,0.13,-0.63,0.65
10.027936935424805,-0.34,0.14,-0.82,0.89
10.03050708770752,-0.76,0.23,-0.79,1.12
10.042176246643066,-1.04,0.46,-0.07,1.13
10.05082893371582,-1.14,0.72,0.7,1.51
10.06093692779541,-1.14,0.82,0.85,1.64
10.07092809677124,-0.95,0.82,0.76,1.46
10.081427097320557,-0.65,0.71,0.45,1.06
10.092698097229004,-0.7,0.61,0.15,0.94
10.101331233978271,-0.86,0.85,-0.25,1.23
10.111320972442627,-1.12,1.16,-0.44,1.67
10.127764225006104,-1.5,1.51,-0.41,2.16
10.131422996520996,-1.86,1.93,-0.41,2.71
10.142853260040283,-2.31,2.29,-0.01,3.25
10.15168809890747,-2.67,2.78,-0.04,3.85
10.161715984344482,-2.98,3.44,0.02,4.55
10.172171115875244,-3.18,4.18,0.12,5.25
10.18186616897583,-3.4,4.94,0.33,6.0
10.193324089050293,-3.64,6.01,0.24,7.03
10.202121257781982,-4.04,7.58,0.0,8.58
10.21218204498291,-4.86,9.21,-0.64,10.43
10.228407144546509,-6.39,9.75,-1.01,11.7
10.232471942901611,-8.19,9.63,-0.55,12.65
10.243754148483276,-9.87,7.74,0.61,12.55
10.25250506401062,-9.72,4.2,-0.44,10.59
10.262653112411499,-7.24,2.55,-2.38,8.03
10.27251410484314,-4.91,2.36,-2.31,5.91
10.282844066619873,-2.86,2.21,-2.68,4.49
10.294279098510742,-2.27,0.73,-2.07,3.15
10.30306625366211,-1.86,-1.06,-1.28,2.49
10.31328821182251,-2.4,-4.23,1.06,4.97
10.328380107879639,-6.77,-6.25,5.8,10.88
10.333155155181885,-10.81,-5.77,4.04,12.9
10.34451413154602,-13.26,-6.03,1.29,14.62
10.353347063064575,-13.62,-5.64,0.98,14.77
10.363476037979126,-13.1,-3.91,1.77,13.78
10.373569011688232,-12.01,-2.3,1.62,12.33
10.383584022521973,-10.26,-1.75,1.7,10.54
10.395349025726318,-7.38,-1.09,1.92,7.7
10.403767108917236,-5.14,-0.78,2.57,5.79
10.41382122039795,-3.52,-0.58,2.57,4.39
10.428584098815918,-2.52,-0.46,2.28,3.42
10.433938980102539,-2.2,-0.14,1.85,2.87
10.445383071899414,-2.38,0.47,1.49,2.84
10.454178094863892,-2.75,0.99,1.03,3.09
10.464200973510742,-2.91,1.3,0.54,3.23
10.474500179290771,-2.63,1.59,0.07,3.07
10.484436988830566,-1.9,2.11,-0.36,2.86
10.49584412574768,-0.97,2.75,-0.74,3.0
10.504663944244385,-0.18,3.1,-0.97,3.25
10.516013145446777,0.46,3.32,-0.83,3.45
10.528304100036621,0.86,3.2,-1.07,3.48
10.534802913665771,1.02,2.88,-1.06,3.23
10.546380043029785,1.1,2.76,-1.02,3.14
10.555341243743896,1.04,2.93,-1.29,3.36
10.56506609916687,0.16,3.82,-1.46,4.09
10.575250148773193,-0.43,3.77,-1.56,4.1
10.585216045379639,0.22,2.43,-1.72,2.98
10.596481084823608,1.54,2.64,-1.61,3.45
10.605842113494873,3.33,3.09,-1.44,4.76
10.616650104522705,5.34,2.81,-1.03,6.12
10.628343105316162,6.67,2.59,-0.39,7.16
10.635554075241089,7.1,2.62,-0.41,7.57
10.646831035614014,7.29,2.88,-0.66,7.86
10.65584111213684,6.82,2.97,-0.98,7.5
10.665861129760742,6.48,2.75,-1.32,7.16
10.67591404914856,6.92,2.04,-1.67,7.4
10.685960054397583,8.57,1.84,-2.11,9.01
10.697582244873047,10.15,1.77,-2.47,10.59
10.706151008605957,10.81,0.93,-2.14,11.05
10.717573165893555,11.53,-0.02,-1.59,11.63
10.728549003601074,11.51,-0.42,-1.57,11.62
10.736412048339844,11.59,-0.45,-1.31,11.67
10.747805118560791,11.17,-0.76,-0.7,11.21
10.756542205810547,9.64,-0.92,-0.37,9.69
10.766634941101074,8.65,-0.85,-0.4,8.7
10.77674913406372,8.24,-0.72,-0.62,8.29
10.786786079406738,8.22,-0.6,-0.51,8.25
10.798219203948975,8.41,-0.32,-0.13,8.41
10.80705714225769,8.3,4.31,-2.26,9.62
10.818432092666626,-0.06,19.19,0.39,19.19
10.828348159790039,-7.08,11.94,3.67,14.35
10.837275981903076,-1.95,-13.35,2.3,13.68
10.848659038543701,-6.37,-4.58,12.25,14.54
10.857362270355225,-8.15,2.24,7.25,11.13
10.867403030395508,-1.98,-5.83,0.79,6.2
10.87761116027832,0.87,-1.79,1.73,2.63
10.887564182281494,3.57,2.32,1.09,4.39
10.898895263671875,6.47,1.13,-1.84,6.82
10.90786600112915,7.17,2.59,-3.2,8.26
10.917837142944336,7.32,3.21,-4.3,9.07
10.92801308631897,6.01,1.81,-3.78,7.32
10.937993049621582,4.01,1.2,-2.44,4.84
10.94930911064148,1.27,0.62,-2.44,2.81
10.958246231079102,-0.87,-0.4,-1.17,1.51
10.968299150466919,-1.55,-0.71,0.24,1.72
10.978384971618652,-1.18,-0.43,1.46,1.92
10.988892078399658,0.16,0.08,2.36,2.36
10.999867916107178,1.37,0.53,1.92,2.41
11.0087890625,1.81,0.65,1.43,2.39
11.018670082092285,1.63,0.53,0.93,1.95
11.028692245483398,1.56,0.58,0.09,1.66
11.03919506072998,1.55,0.48,-0.17,1.63
11.050092220306396,1.42,0.35,-1.17,1.87
11.059064149856567,1.05,0.14,-1.61,1.92
11.069043159484863,0.43,0.02,-1.62,1.67
11.079246044158936,-0.62,-0.13,-0.69,0.93
11.08915114402771,-1.09,-0.11,0.29,1.13
11.100758075714111,-1.0,-0.16,0.46,1.11
11.109498023986816,-0.76,-0.21,0.53,0.95
11.119375228881836,-0.36,-0.03,0.6,0.7
11.12962007522583,-0.14,0.01,0.42,0.44
11.139470100402832,-0.02,-0.03,0.05,0.06
11.150929927825928,0.46,0.06,-0.09,0.47
11.159872055053711,1.09,0.16,-0.4,1.17
11.169902086257935,1.04,0.12,-0.56,1.18
11.180016040802002,0.57,-0.04,-0.5,0.75
11.190002918243408,-0.06,-0.07,-0.32,0.33
11.201497077941895,-0.55,-0.04,-0.04,0.55
11.210416078567505,-0.84,-0.17,0.25,0.89
11.220339059829712,-1.02,-0.4,0.28,1.13
11.230524063110352,-0.68,-0.03,0.17,0.7
11.240562915802002,-0.42,0.08,0.32,0.53
11.25173306465149,-0.19,0.03,0.15,0.24
11.26074504852295,0.1,0.03,-0.12,0.15
11.270847082138062,0.09,-0.12,-0.17,0.22
11.280942916870117,-0.09,-0.25,0.1,0.28
11.291054248809814,-0.24,-0.04,0.28,0.37
11.302465915679932,-0.32,0.18,0.06,0.37
11.312541007995605,-0.36,0.17,-0.1,0.41
11.321115970611572,-0.35,0.26,-0.36,0.56
11.331356048583984,-0.42,0.29,-0.21,0.55
11.341417074203491,-0.53,0.21,-0.22,0.61
11.35263705253601,-0.79,0.12,-0.25,0.83
11.361808061599731,-1.03,0.03,-0.14,1.03
11.372136116027832,-1.16,0.07,0.08,1.16
11.381755113601685,-0.76,-0.09,-0.12,0.77
11.391849040985107,-0.68,-0.02,-0.45,0.81
11.403340101242065,-0.67,0.38,-0.43,0.88
11.413425922393799,-0.75,0.57,-0.65,1.14
11.428544998168945,-1.04,0.48,-0.87,1.43
11.432199954986572,-1.43,0.41,-0.65,1.62
11.44224214553833,-1.79,0.44,-0.58,1.93
11.453562259674072,-2.0,0.67,-0.59,2.19
11.462358951568604,-2.14,0.98,-0.51,2.4
11.472540140151978,-2.25,1.13,-0.09,2.51
11.482673168182373,-2.21,1.32,0.46,2.61
11.492736101150513,-2.02,1.42,0.63,2.54
11.504148006439209,-1.77,1.54,0.14,2.35
11.513973236083984,-1.51,1.92,0.02,2.44
11.528670072555542,-1.39,2.37,0.36,2.77
11.532932043075562,-1.4,2.76,0.39,3.11
11.543052196502686,-1.55,3.08,0.51,3.48
11.554388046264648,-1.89,3.42,0.94,4.01
11.563218116760254,-2.44,3.93,1.41,4.83
11.573145151138306,-3.06,4.58,1.35,5.67
11.583357095718384,-3.79,5.36,1.15,6.66
11.593469142913818,-4.64,6.09,1.3,7.76
11.604599952697754,-5.46,6.99,0.67,8.89
11.614848136901855,-6.53,7.8,-0.14,10.17
11.628278255462646,-7.81,8.17,-0.38,11.3
11.633756160736084,-8.74,7.97,-0.75,11.85
11.64377212524414,-8.68,8.32,-2.71,12.32
11.655643939971924,-8.2,8.53,-3.62,12.37
11.664050102233887,-7.23,6.75,-2.51,10.2
11.67412519454956,-5.56,5.61,-2.08,8.16
11.684126138687134,-4.92,4.5,-1.73,6.88
11.694361209869385,-5.07,2.64,0.44,5.73
11.706112146377563,-5.99,-0.11,-0.32,5.99
11.714505195617676,-6.82,-4.08,-0.36,7.95
11.728879928588867,-7.08,-4.33,1.51,8.43
11.734536170959473,-8.54,-3.22,2.88,9.57
11.744592189788818,-11.06,-4.35,2.1,12.06
11.756375074386597,-12.44,-4.47,2.2,13.4
11.764923095703125,-12.49,-4.25,2.11,13.36
11.774919986724854,-11.07,-3.32,1.31,11.63
11.785053253173828,-9.12,-2.45,1.13,9.51
11.795238971710205,-7.5,-2.12,1.41,7.92
11.806817054748535,-6.39,-2.05,1.74,6.93
11.815337181091309,-5.6,-1.97,1.8,6.2
11.829416036605835,-5.02,-1.68,1.75,5.57
11.835418224334717,-4.52,-1.15,1.51,4.9
11.845510959625244,-3.99,-0.55,1.05,4.16
11.85735011100769,-3.4,0.11,0.76,3.48
11.865636110305786,-2.74,0.64,0.63,2.88
11.875725269317627,-2.01,0.97,0.46,2.27
11.885753154754639,-1.2,1.37,0.04,1.82
11.89595913887024,-0.37,1.84,-0.35,1.9
11.907355070114136,0.28,2.34,-0.53,2.41
11.91608715057373,0.61,2.56,-0.6,2.69
11.929683208465576,0.76,2.55,-0.82,2.78
11.936158180236816,0.9,2.62,-1.07,2.96
11.9462251663208,1.06,2.75,-1.3,3.22
11.95765495300293,1.19,2.88,-1.49,3.45
11.966482162475586,1.28,3.04,-1.6,3.66
11.976529121398926,0.98,3.53,-1.78,4.07
11.986550092697144,-0.05,4.32,-1.81,4.68
11.996889114379883,-0.61,4.21,-1.98,4.69
12.008049011230469,-0.32,3.82,-2.2,4.41
12.01696515083313,0.78,4.76,-2.66,5.5
12.030519962310791,2.93,5.89,-3.28,7.35
12.037020206451416,5.74,6.31,-3.69,9.29
12.047061920166016,8.18,6.37,-3.29,10.87
12.05853796005249,9.62,5.76,-2.99,11.6
12.06732702255249,10.33,4.57,-2.92,11.66
12.07737112045288,10.98,3.2,-2.89,11.79
12.087419986724854,11.25,2.17,-2.84,11.8
12.097515106201172,11.85,1.45,-3.19,12.35
12.110327243804932,12.42,0.38,-2.99,12.78
12.117877960205078,12.06,-0.67,-2.23,12.28
12.13120412826538,11.7,-0.98,-2.12,11.93
12.137782096862793,12.4,-0.79,-1.87,12.56
12.147961139678955,12.57,-0.83,-1.92,12.74
12.159191131591797,11.46,-1.12,-1.86,11.66
12.168009042739868,10.31,-1.0,-1.52,10.46
12.178215026855469,9.43,-0.78,-1.1,9.52
12.188156127929688,8.6,-0.46,-0.68,8.63
12.198410034179688,7.65,4.44,-3.07,9.36
12.210938930511475,-1.21,18.18,0.87,18.24
12.21851921081543,-5.68,13.36,11.12,18.28
12.230911254882812,-0.36,-9.94,-2.36,10.22
12.23903512954712,-3.54,-5.88,-5.92,9.06
12.248637199401855,-7.14,-1.77,7.45,10.46
12.260152101516724,-5.85,-1.68,10.09,11.78
12.268799066543579,-2.16,-2.48,4.81,5.82
12.278890132904053,1.77,-1.46,2.98,3.76
12.28925609588623,4.64,1.46,0.63,4.9
12.299147129058838,7.22,2.28,-3.66,8.4
12.3113112449646,8.92,2.26,-7.89,12.12
12.319358110427856,10.6,3.81,-3.85,11.9
12.331937074661255,8.71,4.05,-0.32,9.61
12.33927297592163,5.2,2.04,-0.89,5.65
12.349523067474365,3.3,0.23,-0.9,3.42
12.360743045806885,2.55,0.4,-1.07,2.79
12.369609117507935,1.49,0.62,-0.08,1.61
12.379703998565674,0.61,0.36,1.62,1.76
12.389667987823486,0.27,0.03,1.19,1.22
12.399915218353271,0.23,-0.11,0.25,0.35
12.412210941314697,0.18,0.0,0.35,0.39
12.420012950897217,0.14,0.13,0.77,0.79
12.432132244110107,0.2,0.29,0.18,0.39
12.44020414352417,0.32,0.12,-0.45,0.56
12.450330257415771,0.4,-0.01,-0.67,0.78
12.461596965789795,0.56,-0.02,-0.81,0.98
12.47047209739685,0.47,-0.02,-1.25,1.33
12.48061203956604,0.1,-0.06,-0.64,0.65
12.490710258483887,-0.16,-0.14,0.02,0.21
12.50081205368042,-0.32,-0.22,0.23,0.45
12.51207709312439,-0.37,-0.12,0.33,0.51
12.520918130874634,-0.3,-0.02,0.39,0.49
12.533239126205444,-0.14,-0.1,0.23,0.28
12.54102897644043,0.0,-0.02,-0.16,0.16
12.551116943359375,0.14,0.25,-0.17,0.33
12.562408924102783,0.16,0.1,-0.09,0.2
12.571342945098877,0.01,-0.1,-0.01,0.1
12.581713199615479,-0.36,-0.32,0.2,0.52
12.591533184051514,-0.5,0.0,-0.03,0.5
12.60167121887207,-0.56,0.19,-0.17,0.61
12.612811088562012,-0.6,0.13,-0.24,0.65
12.628002166748047,-0.43,0.0,-0.37,0.56
12.634727001190186,-0.17,-0.1,-0.39,0.43
12.641900062561035,0.16,0.06,-0.22,0.27
12.651961088180542,0.51,0.09,-0.1,0.52
12.663272142410278,0.69,0.17,0.13,0.72
12.672471046447754,0.58,0.27,0.16,0.65
12.68226408958435,0.18,0.16,-0.06,0.24
12.69234323501587,-0.19,0.09,-0.09,0.22
12.702393054962158,-0.33,0.08,-0.25,0.42
12.713848114013672,-0.42,0.07,-0.31,0.52
12.729401111602783,-0.23,0.06,-0.32,0.39
12.736338138580322,-0.4,0.01,-0.15,0.42
12.742769241333008,-0.69,0.11,-0.1,0.7
12.752872943878174,-1.05,0.16,0.09,1.06
12.7642240524292,-1.38,0.26,0.37,1.45
12.772926092147827,-1.69,0.33,0.55,1.8
12.783116102218628,-1.98,0.24,0.28,2.01
12.793174266815186,-2.32,-0.28,0.21,2.34
12.803442001342773,-2.08,0.11,-0.28,2.1
12.814633131027222,-1.59,0.66,-0.49,1.78
12.829039096832275,-1.39,0.87,-0.96,1.9
12.835600137710571,-1.59,1.09,-0.72,2.05
12.843640089035034,-1.91,1.28,-0.38,2.33
12.853636264801025,-2.13,1.62,0.03,2.67
12.865039110183716,-2.12,2.02,0.53,2.97
12.873836040496826,-1.96,2.22,0.73,3.05
12.883896112442017,-1.73,2.29,0.63,2.93
12.893936157226562,-1.44,2.53,0.71,2.99
12.911288261413574,-1.25,2.55,1.07,3.03
12.915657997131348,-1.28,2.44,1.12,2.97
12.924270153045654,-1.4,2.68,0.97,3.17
12.934186935424805,-1.79,3.27,1.02,3.86
12.944343090057373,-2.38,3.91,0.61,4.61
12.954479217529297,-3.21,4.64,0.05,5.64
12.965882062911987,-4.2,5.75,-0.01,7.12
12.974616050720215,-5.32,7.38,0.06,9.09
12.984632015228271,-6.7,9.07,0.47,11.28
12.994733095169067,-8.15,9.94,0.88,12.88
13.012492179870605,-9.35,9.36,0.11,13.23
13.016861915588379,-9.76,7.29,-0.43,12.18
13.025115966796875,-7.85,5.6,-1.77,9.8
13.035092115402222,-5.47,4.68,-2.24,7.53
13.045450210571289,-3.38,5.61,-1.93,6.82
13.055706024169922,-3.08,4.98,-1.68,6.09
13.066789150238037,-4.25,1.63,-0.67,4.6
13.075578212738037,-4.8,-0.7,0.53,4.87
13.085609912872314,-5.57,-4.15,1.86,7.19
13.095652103424072,-7.29,-6.02,1.44,9.56
13.114109992980957,-9.41,-4.41,0.3,10.39
13.118894100189209,-11.81,-3.99,1.11,12.51
13.125957012176514,-13.13,-4.13,1.7,13.86
13.135886192321777,-13.24,-3.86,1.81,13.9
13.146079063415527,-12.96,-4.11,1.46,13.67
13.156237125396729,-11.94,-3.81,1.34,12.6
13.167704105377197,-9.65,-2.66,1.24,10.08
13.17633605003357,-7.49,-1.64,1.16,7.75
13.18660593032837,-5.68,-0.93,0.96,5.83
13.196503162384033,-4.28,-0.36,0.88,4.38
13.207650184631348,-3.37,0.07,0.76,3.45
13.218003034591675,-2.89,0.51,0.47,2.97
13.228936195373535,-2.64,0.95,0.26,2.81
13.236708164215088,-2.33,1.51,0.08,2.77
13.246910095214844,-1.83,2.14,-0.29,2.83
13.25686502456665,-1.17,2.76,-0.62,3.06
13.26853895187378,-0.53,3.15,-0.76,3.28
13.277137041091919,-0.03,3.11,-0.81,3.21
13.287137031555176,0.54,3.1,-0.72,3.22
13.297261238098145,1.03,3.18,-0.89,3.45
13.312389135360718,1.3,3.14,-1.14,3.58
13.318599224090576,1.4,3.05,-1.31,3.6
13.327479124069214,1.36,2.97,-1.52,3.6
13.337491989135742,1.32,2.97,-1.65,3.64
13.34777307510376,1.36,3.01,-1.68,3.7
13.357805252075195,1.44,3.08,-1.64,3.77
13.369205951690674,1.39,3.54,-1.54,4.1
13.377989053726196,0.38,4.94,-1.24,5.1
13.388004064559937,-0.03,4.58,-1.05,4.69
13.398064136505127,0.91,3.44,-1.4,3.82
13.412084102630615,2.19,3.72,-1.29,4.5
13.419352054595947,4.74,4.98,-1.42,7.02
13.428444147109985,7.5,5.55,-1.7,9.48
13.438930988311768,9.39,5.39,-1.92,10.99
13.44864010810852,10.4,4.62,-2.32,11.61
13.45864725112915,10.98,3.09,-2.55,11.68
13.470024108886719,10.53,1.33,-3.23,11.09
13.478924036026001,12.38,0.23,-2.77,12.68
13.489468097686768,13.92,-1.04,-1.44,14.03
13.49901008605957,14.29,-2.11,-1.34,14.5
13.512572050094604,15.87,-2.59,-1.34,16.13
13.520356178283691,16.21,-2.71,-1.04,16.46
13.529339075088501,16.04,-2.65,-0.64,16.27
13.539463996887207,13.78,-2.58,-0.01,14.01
13.549510955810547,10.81,-1.19,0.23,10.87
13.559515953063965,8.32,3.64,-5.67,10.7
13.571054935455322,5.81,3.31,3.06,7.35
13.579895973205566,-3.35,14.32,6.56,16.1
13.589647054672241,-9.27,12.49,3.06,15.85
13.599915981292725,-2.81,-11.48,2.96,12.18
13.613065242767334,-6.87,-5.93,1.0,9.13
13.621097087860107,-8.03,-0.6,6.04,10.06
13.63004207611084,-2.58,-3.07,5.05,6.44
13.639965057373047,2.13,-1.23,1.17,2.72
13.65016222000122,5.94,1.25,-6.92,9.2
13.660291194915771,9.79,4.09,-7.96,13.26
13.671800136566162,12.96,5.39,-1.63,14.13
13.680521965026855,11.58,4.03,4.31,12.99
13.69044303894043,7.34,0.94,2.53,7.82
13.70198392868042,4.49,-0.75,0.36,4.56
13.712737083435059,3.46,0.31,-2.2,4.11
13.722336053848267,2.32,0.52,-2.13,3.19
13.730729103088379,0.37,-0.01,0.28,0.46
13.740698099136353,-0.83,-0.04,1.6,1.8
13.750878095626831,-1.02,0.09,0.77,1.28
13.761049032211304,-0.99,-0.02,-0.4,1.06
13.772956132888794,-1.01,-0.08,-0.29,1.05
13.781196117401123,-0.95,-0.08,0.06,0.95
13.791321039199829,-0.66,-0.06,0.06,0.66
13.802672147750854,-0.16,-0.03,-0.35,0.38
13.812499046325684,0.21,-0.02,-0.8,0.82
13.823282241821289,0.46,-0.02,-0.91,1.01
13.831629037857056,0.44,0.04,-0.51,0.67
13.841727256774902,0.33,0.06,-0.16,0.37
13.851737022399902,0.09,-0.04,-0.09,0.13
13.861793041229248,0.0,0.0,0.19,0.19
13.87374210357666,0.11,0.11,0.3,0.33
13.881996154785156,0.18,0.09,0.16,0.25
13.892138004302979,0.27,0.05,0.08,0.28
13.90345811843872,0.26,-0.02,-0.06,0.26
13.912175178527832,0.2,-0.07,-0.16,0.26
13.923815250396729,-0.02,-0.11,-0.22,0.24
13.932467937469482,-0.26,-0.13,-0.14,0.32
13.942533016204834,-0.42,-0.12,0.03,0.43
13.952617168426514,-0.48,-0.09,0.27,0.55
13.962602138519287,-0.45,-0.04,0.15,0.47
13.974286079406738,-0.35,0.02,0.0,0.35
13.9828519821167,-0.17,0.11,-0.07,0.21
13.993017196655273,-0.16,0.0,-0.23,0.28
14.003859996795654,-0.16,-0.07,-0.41,0.44
14.013171195983887,-0.12,-0.07,-0.38,0.4
14.024171113967896,-0.42,-0.42,-0.08,0.59
14.033370971679688,-0.52,-0.02,-0.1,0.52
14.043321132659912,-0.36,0.35,-0.02,0.5
14.053343057632446,-0.39,0.24,0.21,0.5
14.063473224639893,-0.45,0.06,0.24,0.51
14.075197219848633,-0.29,0.07,-0.14,0.32
14.083652019500732,-0.14,0.09,-0.33,0.36
14.093770027160645,-0.15,0.14,-0.37,0.42
14.103744983673096,-0.29,0.13,-0.42,0.52
14.113950252532959,-0.47,0.17,-0.43,0.65
14.125216007232666,-0.73,0.12,-0.53,0.91
14.134011268615723,-1.06,0.05,-0.55,1.19
14.144184112548828,-1.39,0.15,-0.22,1.41
14.154175043106079,-1.87,-0.01,0.01,1.87
14.164276123046875,-1.96,0.38,0.16,2.0
14.175704002380371,-1.94,0.78,0.33,2.11
14.184469223022461,-1.75,0.87,0.15,1.96
14.19455099105835,-1.5,0.79,-0.21,1.7
14.204576015472412,-1.31,0.67,-0.55,1.57
14.214739084243774,-1.19,0.81,-0.52,1.53
14.226112127304077,-1.21,1.16,-0.42,1.72
14.235105037689209,-1.35,1.75,-0.1,2.21
14.244939088821411,-1.5,2.14,-0.01,2.61
14.255084037780762,-1.71,2.58,0.15,3.09
14.265157222747803,-1.81,3.11,0.63,3.65
14.27646803855896,-1.82,3.32,1.13,3.95
14.285239219665527,-1.93,3.19,1.16,3.9
14.295431137084961,-2.01,3.06,1.01,3.79
14.311735153198242,-2.03,3.25,0.57,3.87
14.315608978271484,-2.3,3.72,0.07,4.37
14.326967239379883,-2.86,4.31,-0.17,5.17
14.335647106170654,-3.6,4.94,-0.29,6.11
14.345734119415283,-4.53,5.75,-0.4,7.33
14.356149196624756,-5.65,6.54,-0.15,8.64
14.365945100784302,-6.68,7.32,-0.28,9.91
14.377438068389893,-7.3,8.3,-0.84,11.08
14.386075019836426,-8.04,8.52,-1.11,11.76
14.396214008331299,-7.96,7.95,-0.88,11.28
14.412440061569214,-6.89,6.23,-1.19,9.36
14.416408061981201,-5.73,4.85,-1.75,7.7
14.427647113800049,-4.47,5.15,-1.85,7.06
14.436501026153564,-3.5,5.5,-2.0,6.81
14.44663405418396,-3.69,3.98,-1.17,5.55
14.4566011428833,-4.74,1.46,1.37,5.14
14.46696424484253,-5.65,-2.36,-0.86,6.18
14.478418111801147,-4.76,-2.87,-1.77,5.83
14.48693323135376,-5.47,0.0,2.74,6.11
14.498140096664429,-8.87,-1.8,1.97,9.26
14.512071132659912,-11.21,-3.5,2.12,11.93
14.517107009887695,-12.12,-4.19,2.3,13.02
14.528377056121826,-11.55,-3.6,1.27,12.16
14.537284135818481,-9.9,-2.31,1.07,10.22
14.54737901687622,-8.12,-1.28,1.13,8.29
14.557566165924072,-6.64,-0.92,1.57,6.88
14.567531108856201,-5.44,-0.9,1.77,5.79
14.578855037689209,-4.59,-0.85,1.63,4.94
14.587700128555298,-4.23,-0.82,1.59,4.59
14.598931074142456,-4.25,-0.65,1.22,4.46
14.611752033233643,-4.38,-0.65,1.06,4.55
14.617923259735107,-4.36,-0.79,0.97,4.53
14.62920093536377,-3.84,-0.59,0.7,3.94
14.638020992279053,-2.94,-0.18,0.5,2.98
14.64833402633667,-2.09,0.22,0.34,2.12
14.658346176147461,-1.39,0.58,0.34,1.54
14.66840410232544,-0.61,1.13,0.22,1.3
14.679708003997803,0.28,1.84,-0.31,1.88
14.68911600112915,0.95,2.32,-0.65,2.58
14.69990611076355,1.16,2.33,-0.7,2.69
14.71254825592041,0.95,2.1,-0.67,2.4
14.718765258789062,0.68,2.01,-0.61,2.2
14.730100154876709,0.54,2.14,-0.78,2.34
14.739302158355713,0.63,2.48,-0.98,2.74
14.74894094467163,0.86,2.9,-1.23,3.26
14.759133100509644,1.1,3.32,-1.38,3.75
14.769110202789307,1.32,3.71,-1.4,4.17
14.78088092803955,1.47,4.17,-1.32,4.61
14.789534091949463,0.9,5.58,-1.1,5.75
14.800540924072266,1.38,5.7,-1.39,6.02
14.812405109405518,3.67,5.41,-2.64,7.05
14.819602966308594,6.35,7.78,-3.35,10.58
14.830952167510986,8.1,7.49,-3.56,11.59
14.839649200439453,8.86,5.68,-3.28,11.02
14.849891185760498,9.29,3.72,-2.84,10.4
14.859968185424805,9.72,2.38,-2.65,10.35
14.870031118392944,10.19,1.32,-2.69,10.62
14.881409168243408,10.88,0.65,-2.43,11.16
14.890129089355469,11.73,0.16,-2.34,11.96
14.900290966033936,12.53,-0.48,-2.56,12.79
14.912130117416382,12.77,-1.22,-2.27,13.02
14.920441150665283,12.81,-1.34,-1.67,12.98
14.931917190551758,13.88,-0.89,-1.66,14.0
14.94054126739502,14.21,-0.32,-2.26,14.39
14.950665950775146,13.14,-0.07,-2.47,13.37
14.960864067077637,10.59,0.09,-1.71,10.72
14.970864057540894,7.83,2.75,-1.94,8.52
14.982222080230713,0.5,14.85,-2.61,15.08
14.991029262542725,-12.1,19.99,15.67,28.13
15.001122951507568,-3.86,-10.61,10.9,15.69
15.011466979980469,-2.88,-10.36,-4.26,11.56
15.02128791809082,-6.86,-2.75,-0.26,7.39
15.032494068145752,-5.36,-1.24,6.84,8.77
15.041769981384277,-2.82,-1.0,3.55,4.64
15.051482200622559,0.35,-2.01,1.85,2.75
15.06172800064087,3.86,-1.31,5.24,6.63
15.072408199310303,4.69,1.73,3.24,5.95
15.083271026611328,4.56,1.72,-7.68,9.09
15.09189224243164,6.29,1.79,-14.28,15.7
15.101931095123291,9.02,3.27,-8.13,12.57
15.111998081207275,10.61,4.57,-1.87,11.7
15.122481107711792,8.57,3.38,4.76,10.36
15.133376121520996,5.93,1.13,8.97,10.81
15.142313957214355,4.36,0.32,1.01,4.48
15.152279138565063,3.67,0.25,-3.03,4.76
15.162405967712402,2.75,0.34,-1.1,2.98
15.172866106033325,1.47,0.2,-0.24,1.5
15.183954238891602,0.51,-0.11,0.11,0.53
15.192735195159912,0.13,-0.02,-0.59,0.6
15.202714920043945,-0.61,-0.04,-0.43,0.74
15.212866067886353,-1.16,-0.08,0.02,1.16
15.222873210906982,-1.42,-0.08,0.13,1.42
15.234174251556396,-1.36,-0.05,0.07,1.36
15.24305009841919,-1.13,-0.07,-0.19,1.14
15.253209114074707,-0.77,-0.12,-0.45,0.89
15.263354063034058,-0.61,-0.15,-0.25,0.67
15.273333072662354,-0.42,-0.19,0.06,0.46
15.28520393371582,-0.11,-0.12,0.12,0.2
15.295042037963867,-0.08,-0.24,0.41,0.48
15.303575038909912,0.06,0.06,0.13,0.15
15.313694953918457,0.13,0.36,-0.27,0.46
15.323795080184937,0.13,0.15,-0.26,0.32
15.335040092468262,0.3,-0.06,-0.35,0.46
15.34390926361084,0.56,-0.06,-0.26,0.62
15.353920936584473,0.67,0.14,-0.02,0.68
15.364158153533936,0.37,0.18,0.17,0.44
15.374222040176392,0.19,0.16,-0.02,0.24
15.385781049728394,-0.05,0.07,-0.06,0.1
15.395786046981812,-0.25,0.02,-0.15,0.29
15.404365062713623,-0.44,0.02,-0.3,0.53
15.414489269256592,-0.6,0.07,-0.34,0.69
15.424711227416992,-0.81,0.02,-0.13,0.82
15.4360990524292,-0.95,-0.08,0.03,0.95
15.444796085357666,-0.96,-0.15,0.34,1.02
15.454790115356445,-0.88,-0.11,0.68,1.11
15.464937210083008,-0.74,-0.06,0.32,0.8
15.475003242492676,-0.67,-0.2,-0.11,0.7
15.486599922180176,-0.45,0.05,-0.71,0.84
15.496571063995361,-0.22,0.5,-0.82,0.98
15.512182235717773,-0.4,0.35,-0.62,0.81
15.515317916870117,-0.62,0.32,-0.52,0.87
15.525573253631592,-0.96,0.29,0.43,1.09
15.536755084991455,-1.37,0.41,1.21,1.87
15.545615196228027,-1.24,0.67,0.64,1.54
15.556073188781738,-0.67,0.78,-0.43,1.11
15.565791130065918,-0.24,0.91,-1.19,1.51
15.575754165649414,-0.7,0.95,-0.88,1.47
15.587437152862549,-1.31,1.1,-0.41,1.75
15.597216129302979,-1.72,1.21,-0.46,2.15
15.612168073654175,-1.97,1.43,0.01,2.43
15.616018056869507,-2.09,1.58,0.16,2.62
15.626232147216797,-2.1,1.81,0.27,2.78
15.637556076049805,-1.97,2.11,0.51,2.93
15.646362066268921,-1.75,2.47,0.19,3.03
15.656399250030518,-1.64,2.86,0.03,3.29
15.666551113128662,-1.58,3.05,-0.1,3.43
15.676599025726318,-1.77,3.26,0.3,3.72
15.688391208648682,-2.26,3.59,0.73,4.3
15.696763038635254,-2.89,4.09,0.55,5.03
15.712542057037354,-3.65,4.8,0.51,6.05
15.716938972473145,-4.41,6.32,0.46,7.72
15.726989269256592,-5.26,7.82,0.29,9.42
15.738423109054565,-6.29,8.58,-0.15,10.63
15.747250080108643,-7.63,8.29,-0.85,11.29
15.757233142852783,-8.56,7.51,-1.21,11.45
15.7673020362854,-8.36,6.95,-1.47,10.97
15.777446269989014,-7.1,5.75,-2.1,9.37
15.789274215698242,-5.82,4.66,-1.94,7.7
15.797569036483765,-4.71,4.6,-1.97,6.87
15.812043190002441,-4.16,4.45,-2.39,6.54
15.817614078521729,-4.32,3.1,-1.92,5.65
15.827761173248291,-4.54,1.11,0.43,4.69
15.839303016662598,-5.1,-2.57,-0.17,5.71
15.848026037216187,-5.08,-4.43,0.41,6.75
15.858066082000732,-5.95,-2.56,2.92,7.1
15.868076086044312,-8.87,-3.34,2.32,9.75
15.878221988677979,-11.31,-4.22,2.07,12.24
15.890107154846191,-12.25,-4.17,2.51,13.18
15.89842700958252,-11.42,-3.2,1.6,11.96
15.911842107772827,-9.6,-2.07,1.2,9.89
15.91849422454834,-7.96,-1.53,1.35,8.21
15.928673267364502,-6.79,-1.46,1.71,7.15
15.940378189086914,-5.89,-1.47,1.92,6.36
15.948713064193726,-5.08,-1.26,1.9,5.56
15.959065914154053,-4.39,-0.86,1.84,4.83
15.96914005279541,-3.87,-0.44,1.74,4.26
15.979113101959229,-3.39,-0.03,1.53,3.71
15.991060256958008,-2.82,0.36,1.34,3.14
15.999239921569824,-2.22,0.73,1.3,2.67
16.012339115142822,-1.55,1.07,1.16,2.21
16.01921510696411,-0.9,1.42,0.66,1.8
16.029550075531006,-0.35,1.85,0.16,1.88
16.04080605506897,-0.06,2.2,-0.17,2.2
16.04958724975586,0.0,2.27,-0.32,2.29
16.059723138809204,0.04,2.32,-0.51,2.37
16.069766998291016,0.21,2.39,-0.76,2.51
16.079841136932373,0.47,2.52,-0.88,2.71
16.092210054397583,0.82,2.71,-0.97,2.99
16.099939107894897,1.17,2.91,-1.09,3.32
16.11272406578064,1.46,3.15,-1.13,3.65
16.120142936706543,1.69,3.43,-1.09,3.97
16.130321979522705,1.94,3.85,-1.15,4.46
16.141525268554688,2.21,4.29,-1.23,4.98
16.150452136993408,2.43,4.6,-1.21,5.34
16.160542011260986,2.6,4.76,-1.12,5.53
16.170653104782104,2.79,4.82,-1.04,5.66
16.180981159210205,2.37,5.39,-0.94,5.96
16.193428993225098,1.74,5.62,-0.82,5.94
16.20085906982422,2.23,3.81,-1.33,4.61
16.213568210601807,2.83,2.1,-1.86,3.98
16.220980167388916,4.92,1.95,-1.72,5.56
16.23117208480835,8.41,3.07,-1.59,9.09
16.242544174194336,10.34,3.23,-1.45,10.92
16.251369953155518,11.39,2.44,-1.32,11.72
16.261369228363037,11.53,1.12,-1.93,11.74
16.271472930908203,12.92,0.23,-2.11,13.09
16.281615257263184,13.63,-1.01,-1.36,13.73
16.294148921966553,13.08,-2.11,-0.99,13.28
16.30162000656128,13.73,-2.54,-0.82,13.98
16.31518006324768,13.47,-2.46,-0.67,13.7
16.32164192199707,11.51,-1.8,-0.57,11.66
16.332077026367188,9.46,-0.82,-0.72,9.52
16.343308925628662,8.05,-0.23,-0.83,8.09
16.352100133895874,6.99,2.18,-2.15,7.63
16.36213207244873,6.18,6.81,-3.79,9.94
16.372729063034058,-2.53,16.79,8.38,18.93
16.382434129714966,-9.0,12.95,3.31,16.11
16.39480710029602,-1.6,-13.09,-1.9,13.32
16.402596950531006,-5.07,-8.09,-0.52,9.56
16.415500164031982,-8.61,-0.04,7.86,11.65
16.422818183898926,-5.19,-3.27,5.47,8.21
16.432773113250732,-0.67,-3.46,2.68,4.42
16.443990230560303,2.75,-0.89,2.84,4.05
16.452895164489746,4.71,1.89,0.75,5.13
16.46296215057373,6.64,2.34,-3.61,7.91
16.472999095916748,8.81,2.22,-6.52,11.18
16.483238220214844,11.0,3.82,-1.38,11.72
16.496536254882812,10.65,4.68,2.0,11.8
16.50320291519165,7.19,2.65,-0.22,7.66
16.513278007507324,4.52,0.11,-0.86,4.6
16.52326202392578,2.99,-0.32,-1.26,3.26
16.533594131469727,1.78,0.43,-0.91,2.04
16.54492211341858,0.49,0.6,1.05,1.3
16.553736209869385,-0.57,0.06,0.83,1.0
16.56377124786377,-0.97,-0.18,-0.01,0.98
16.573849201202393,-1.16,-0.15,0.2,1.18
16.58389902114868,-1.22,-0.25,0.66,1.4
16.597424030303955,-0.74,-0.16,0.28,0.8
16.60409712791443,-0.17,-0.03,-0.32,0.36
16.614110946655273,0.12,0.01,-0.58,0.59
16.624304056167603,0.44,0.03,-0.83,0.93
16.6344211101532,0.46,0.04,-0.89,1.0
16.645552158355713,0.46,0.07,-0.57,0.73
16.65446901321411,0.29,0.04,-0.34,0.44
16.664642095565796,0.11,-0.05,-0.06,0.13
16.67471218109131,-0.09,-0.16,0.28,0.33
16.68472719192505,-0.15,-0.09,0.44,0.47
16.696299076080322,-0.07,0.06,0.42,0.43
16.704923152923584,0.19,0.08,0.05,0.21
16.719237089157104,0.45,0.01,-0.21,0.49
16.72514295578003,0.48,-0.09,-0.28,0.56
16.735191106796265,0.34,-0.04,-0.29,0.44
16.746535062789917,0.2,0.05,-0.29,0.35
16.75571298599243,-0.13,0.03,-0.1,0.16
16.76544713973999,-0.32,0.0,0.0,0.32
16.775535106658936,-0.51,0.0,0.07,0.51
16.785576105117798,-0.55,-0.04,0.23,0.59
16.797043085098267,-0.51,-0.01,0.11,0.52
16.812458038330078,-0.33,0.02,-0.11,0.34
16.818920135498047,-0.3,0.01,-0.13,0.32
16.82594108581543,-0.25,-0.02,0.0,0.25
16.835992097854614,-0.21,-0.06,-0.08,0.23
16.84721612930298,-0.31,-0.02,-0.05,0.31
16.856303215026855,-0.38,0.04,0.01,0.38
16.866291046142578,-0.52,-0.07,0.33,0.61
16.87635326385498,-0.76,-0.18,0.43,0.89
16.887465953826904,-0.57,0.35,0.21,0.7
16.898279190063477,-0.42,0.41,-0.14,0.6
16.906389236450195,-0.56,0.18,-0.2,0.62
16.916640043258667,-0.94,0.02,0.08,0.94
16.92672824859619,-1.21,0.0,0.24,1.23
16.936800003051758,-1.18,0.25,0.07,1.2
16.948086261749268,-1.17,0.36,-0.39,1.28
16.956874132156372,-1.27,0.38,-0.81,1.55
16.966975212097168,-1.55,0.39,-0.66,1.72
16.97714900970459,-1.83,0.69,-0.66,2.06
16.988265991210938,-2.06,1.22,-0.6,2.46
16.99885320663452,-2.38,1.72,-0.13,2.93
17.00744915008545,-2.69,2.05,0.4,3.4
17.01747703552246,-2.88,1.94,0.95,3.6
17.027481079101562,-2.79,1.92,1.51,3.7
17.03757095336914,-2.31,2.24,0.88,3.33
17.048938035964966,-1.53,2.51,0.08,2.94
17.057857036590576,-0.85,2.51,0.16,2.65
17.067845106124878,-0.66,2.59,0.78,2.78
17.078004121780396,-0.69,2.72,0.95,2.96
17.095489025115967,-0.73,3.01,0.94,3.23
17.09962224960327,-0.93,3.62,0.77,3.81
17.108223915100098,-1.44,4.39,0.28,4.62
17.118282079696655,-2.27,5.37,-0.09,5.83
17.12841796875,-3.41,7.1,0.15,7.87
17.138416051864624,-5.12,8.44,1.33,9.96
17.149786949157715,-7.32,7.4,1.48,10.51
17.15866994857788,-8.39,6.48,-0.21,10.6
17.16865110397339,-8.14,7.12,-1.87,10.97
17.178925037384033,-7.53,5.8,-0.66,9.52
17.196657180786133,-6.55,2.77,-0.71,7.14
17.20104694366455,-5.62,1.9,-1.88,6.22
17.209084033966064,-3.74,5.14,-2.8,6.94
17.219088077545166,-3.24,5.26,-3.0,6.86
17.229082107543945,-4.07,2.11,-1.43,4.8
17.239681243896484,-4.04,1.12,1.28,4.38
17.25065803527832,-5.25,-1.02,2.95,6.1
17.25945520401001,-7.33,-1.55,1.03,7.56
17.26943302154541,-9.19,-0.25,0.95,9.24
17.2796950340271,-11.32,-1.02,1.88,11.52
17.29596209526062,-12.71,-2.28,2.45,13.14
17.30094003677368,-13.0,-3.1,2.77,13.64
17.309885025024414,-12.29,-3.18,2.14,12.87
17.31986713409424,-10.71,-2.61,1.66,11.14
17.330076217651367,-8.62,-1.69,1.39,8.89
17.34008812904358,-6.97,-0.92,1.48,7.18
17.351442098617554,-5.76,-0.37,1.51,5.96
17.36033010482788,-5.13,-0.18,1.56,5.36
17.370485067367554,-4.81,-0.13,1.57,5.06
17.38046908378601,-4.52,-0.01,1.47,4.75
17.396544933319092,-4.08,0.25,1.28,4.28
17.401612043380737,-3.53,0.63,1.04,3.73
17.41059923171997,-2.94,1.07,0.55,3.17
17.420717239379883,-2.32,1.64,0.34,2.86
17.430857181549072,-1.66,2.24,0.05,2.78
17.441067218780518,-1.02,2.78,-0.38,2.98
17.452669143676758,-0.49,3.09,-0.56,3.17
17.46125316619873,-0.09,3.19,-0.63,3.25
17.471155166625977,0.19,3.11,-0.78,3.21
17.4813551902771,0.35,3.01,-0.9,3.16
17.496068000793457,0.51,3.0,-0.92,3.17
17.502565145492554,0.77,3.16,-1.11,3.43
17.511762142181396,1.12,3.45,-1.3,3.85
17.521599054336548,1.54,3.83,-1.43,4.36
17.531763076782227,1.95,4.22,-1.72,4.95
17.54184603691101,2.46,4.71,-1.87,5.63
17.553232192993164,2.75,5.43,-1.84,6.35
17.562058925628662,3.01,5.62,-1.76,6.61
17.57252597808838,4.2,5.36,-2.03,7.1
17.582056999206543,6.12,5.88,-2.59,8.87
17.596434116363525,7.33,5.68,-2.87,9.7
17.603496074676514,8.12,4.57,-2.51,9.64
17.612367153167725,8.78,3.37,-2.36,9.69
17.62271022796631,9.2,2.2,-2.57,9.8
17.63249707221985,9.34,1.14,-2.64,9.77
17.642672061920166,10.57,0.3,-2.23,10.8
17.653752088546753,11.34,-0.53,-1.97,11.52
17.662723064422607,11.64,-0.99,-1.97,11.84
17.67293405532837,12.95,-0.82,-2.17,13.15
17.684261083602905,14.15,-0.89,-2.12,14.33
17.69639825820923,14.57,-1.28,-1.99,14.76
17.70422911643982,14.56,-1.81,-1.92,14.79
17.7131290435791,13.53,-0.41,-1.9,13.66
17.723087072372437,10.78,2.58,-4.55,11.98
17.73327922821045,8.06,-0.71,1.78,8.28
17.74356508255005,3.52,7.1,-1.79,8.12
17.75471305847168,-7.74,21.34,2.29,22.81
17.76349115371704,-3.19,-4.11,10.05,11.31
17.77353000640869,-4.46,-9.43,-3.58,11.02
17.784836053848267,-6.87,-2.5,0.92,7.36
17.796151161193848,-3.71,-2.76,4.41,6.38
17.805088996887207,1.48,-1.76,2.76,3.59
17.813905239105225,4.95,-0.32,1.43,5.16
17.824011087417603,6.66,2.35,-1.35,7.19
17.834081172943115,8.46,3.66,-3.56,9.88
17.84423303604126,10.02,3.65,-3.15,11.11
17.855873107910156,9.43,2.86,-2.42,10.14
17.864535093307495,7.29,1.89,0.16,7.53
17.874582052230835,5.06,1.47,-1.09,5.38
17.88575005531311,2.8,0.54,-0.73,2.94
17.896367073059082,1.53,0.43,0.38,1.63
17.90654993057251,0.3,0.11,0.29,0.43
17.914804935455322,-0.65,-0.2,0.4,0.78
17.92479705810547,-0.83,0.01,-0.42,0.93
17.93489122390747,-0.77,-0.12,-0.16,0.79
17.945123195648193,-0.57,0.01,0.43,0.71
17.9570369720459,-0.26,0.09,0.45,0.52
17.965307235717773,0.49,0.24,-0.21,0.58
17.975231170654297,0.9,0.15,-0.55,1.06
17.986656188964844,0.89,0.07,-0.31,0.94
17.995785236358643,0.9,0.16,-0.3,0.96
18.00708293914795,0.91,0.2,-0.53,1.07
18.015602111816406,0.65,0.07,-0.4,0.76
18.025691032409668,0.19,-0.02,-0.25,0.31
18.035685062408447,-0.09,-0.05,-0.31,0.32
18.045852184295654,-0.29,-0.11,-0.12,0.33
18.057307243347168,-0.36,-0.09,0.0,0.37
18.066116094589233,-0.32,-0.09,0.02,0.33
18.0760440826416,-0.23,-0.09,0.09,0.26
18.086172103881836,-0.13,-0.04,-0.11,0.17
18.096163034439087,-0.06,0.03,-0.17,0.18
18.107591152191162,0.2,0.03,-0.07,0.21
18.11634922027588,0.27,0.03,-0.04,0.27
18.126506090164185,0.23,0.07,-0.11,0.26
18.136505126953125,0.15,0.07,-0.19,0.25
18.146667957305908,0.0,-0.03,-0.07,0.07
18.157912254333496,-0.25,-0.15,0.17,0.33
18.166893005371094,-0.36,-0.03,0.22,0.42
18.176902055740356,-0.32,0.19,-0.02,0.37
18.187032222747803,-0.34,0.22,-0.15,0.43
18.19701623916626,-0.41,0.1,-0.23,0.48
18.20817804336548,-0.52,-0.01,0.09,0.52
18.217143058776855,-0.55,-0.03,0.02,0.55
18.22730302810669,-0.58,-0.04,-0.1,0.58
18.23731803894043,-0.66,0.04,-0.08,0.66
18.247529983520508,-0.69,0.22,-0.09,0.72
18.25883722305298,-0.83,0.22,0.0,0.85
18.267649173736572,-1.05,0.21,0.05,1.07
18.277693033218384,-1.16,0.33,0.0,1.2
18.287714958190918,-1.16,0.48,-0.18,1.26
18.297812938690186,-1.12,0.53,-0.27,1.26
18.309232234954834,-1.21,0.49,-0.48,1.39
18.318047046661377,-1.37,0.56,-0.52,1.56
18.32813024520874,-1.58,0.81,-0.3,1.8
18.338197231292725,-1.85,0.77,-0.09,2.0
18.34836196899414,-1.87,1.06,0.04,2.14
18.359628200531006,-1.85,1.44,0.16,2.34
18.36858320236206,-1.91,1.65,0.68,2.61
18.378386974334717,-1.77,2.23,-0.14,2.85
18.388601064682007,-1.63,2.85,0.01,3.28
18.39854097366333,-1.72,3.06,0.1,3.51
18.409897089004517,-1.76,3.36,-0.06,3.79
18.418736934661865,-1.99,3.42,0.41,3.97
18.428877115249634,-2.3,3.37,0.57,4.11
18.439374923706055,-2.43,3.82,0.97,4.63
18.44912314414978,-2.68,4.15,1.31,5.11
18.46044111251831,-2.86,4.67,0.78,5.53
18.469244956970215,-3.35,5.36,0.49,6.33
18.480565071105957,-4.09,6.33,0.77,7.57
18.496376991271973,-4.93,6.73,1.19,8.42
18.49948215484619,-5.81,6.11,0.15,8.43
18.510894060134888,-5.99,5.86,-0.58,8.39
18.519832134246826,-5.66,6.51,-0.68,8.65
18.52983522415161,-5.53,5.55,0.0,7.83
18.539813995361328,-5.27,3.96,-0.97,6.66
18.55001926422119,-4.85,3.37,-2.48,6.4
18.56141424179077,-3.56,4.94,-3.33,6.94
18.570158004760742,-2.99,5.61,-3.3,7.16
18.581411123275757,-3.9,2.57,-1.97,5.06
18.596631050109863,-4.58,-0.21,-0.95,4.68
18.600321054458618,-3.9,-0.61,-1.11,4.1
18.61166214942932,-4.31,1.6,0.88,4.68
18.620450019836426,-7.4,0.14,1.32,7.51
18.630593061447144,-9.92,-1.65,1.06,10.11
18.640522956848145,-10.97,-2.31,1.72,11.34
18.65069818496704,-10.97,-2.38,1.43,11.31
18.662265062332153,-10.55,-2.36,1.59,10.92
18.670863151550293,-9.9,-2.39,2.18,10.41
18.682229042053223,-8.94,-2.18,2.2,9.46
18.69679021835327,-7.73,-1.75,1.89,8.14
18.70112109184265,-6.66,-1.32,1.83,7.03
18.712231159210205,-5.78,-0.86,1.59,6.05
18.721083164215088,-5.11,-0.57,1.45,5.34
18.731153964996338,-4.54,-0.25,1.37,4.74
18.741449117660522,-3.93,0.42,1.23,4.13
18.751322269439697,-3.52,0.67,1.29,3.8
18.762779235839844,-3.19,0.82,1.28,3.53
18.77168893814087,-2.78,0.96,0.94,3.08
18.782685041427612,-2.28,1.09,0.49,2.57
18.796027183532715,-1.7,1.31,0.2,2.15
18.80188012123108,-1.03,1.5,0.02,1.81
18.813223123550415,-0.39,1.66,-0.15,1.71
18.822066068649292,0.16,1.82,-0.05,1.82
18.83227300643921,0.63,2.01,-0.17,2.11
18.8421630859375,0.83,2.08,-0.63,2.32
18.852335929870605,0.75,2.13,-0.69,2.36
18.86367702484131,0.59,2.27,-0.61,2.42
18.872955083847046,0.57,2.52,-0.66,2.66
18.88259792327881,0.71,2.84,-0.74,3.01
18.89578413963318,1.08,3.16,-0.76,3.42
18.902706146240234,1.7,3.54,-0.71,3.99
18.91405200958252,2.4,4.03,-0.7,4.74
18.92303705215454,3.07,4.51,-0.9,5.52
18.933019161224365,3.62,4.93,-1.08,6.21
18.94307804107666,4.25,5.59,-1.38,7.15
18.953105926513672,5.05,6.23,-1.84,8.22
18.964783191680908,5.86,6.04,-2.16,8.68
18.97326111793518,6.61,5.02,-2.64,8.7
18.983196258544922,7.3,3.64,-2.56,8.54
18.995808124542236,7.88,2.35,-2.12,8.49
19.00340509414673,8.32,1.37,-1.95,8.65
19.01465606689453,8.79,0.86,-2.03,9.06
19.023563146591187,9.63,0.76,-2.21,9.9
19.033842086791992,10.27,0.62,-2.53,10.59
19.04388999938965,10.79,0.24,-2.55,11.08
19.05406403541565,11.58,-0.29,-2.39,11.82
19.06548500061035,12.28,-0.59,-2.23,12.49
19.074209213256836,12.49,-0.8,-2.37,12.73
19.084140062332153,12.64,-0.93,-2.35,12.89
19.095848083496094,11.63,-1.04,-1.94,11.83
19.10434103012085,9.36,-0.85,-1.55,9.52
19.115622997283936,7.39,-0.52,-1.17,7.5
19.12461805343628,6.67,2.81,-1.37,7.36
19.134602069854736,5.2,6.72,-4.17,9.46
19.144780158996582,-4.08,13.18,7.54,15.72
19.154853105545044,-12.8,15.68,5.03,20.85
19.166084051132202,-2.53,-12.91,1.42,13.23
19.17503595352173,-3.9,-10.79,-4.3,12.25
19.185014247894287,-8.18,0.68,0.82,8.24
19.19625425338745,-5.09,-2.23,1.16,5.67
19.20519709587097,-0.33,-4.33,0.7,4.39
19.216413974761963,2.95,-0.71,6.08,6.79
19.225435256958008,4.93,0.44,3.8,6.24
19.235451221466064,6.54,1.8,0.97,6.85
19.24552607536316,7.3,2.97,-1.42,8.0
19.256097078323364,8.96,3.39,-1.66,9.72
19.267017126083374,9.17,3.08,0.96,9.72
19.276885986328125,6.23,1.71,-1.39,6.6
19.285856246948242,4.7,1.22,-3.04,5.72
19.295934200286865,3.68,1.3,-2.35,4.55
19.306454181671143,2.05,0.82,-0.77,2.33
19.317389011383057,1.15,0.08,1.11,1.6
19.326175212860107,0.89,0.01,1.01,1.34
19.336315155029297,0.91,0.32,-0.29,1.0
19.34640121459961,0.87,0.36,-1.6,1.85
19.35663104057312,0.41,0.1,-1.09,1.16
19.36805510520935,-0.02,0.02,-0.11,0.11
19.377917051315308,-0.14,0.04,0.34,0.36
19.386704921722412,0.02,0.15,-0.01,0.15
19.396676063537598,0.36,0.11,-0.53,0.65
19.40665626525879,0.56,0.07,-0.77,0.95
19.418272972106934,0.39,0.03,-0.28,0.48
19.427056074142456,0.15,-0.02,0.07,0.16
19.437143087387085,0.15,-0.05,-0.26,0.3
19.447164058685303,0.23,-0.05,-0.16,0.28
19.457211017608643,0.27,-0.06,0.03,0.27
19.468531131744385,0.23,-0.04,-0.07,0.24
19.478727102279663,0.08,-0.07,-0.13,0.16
19.487586975097656,-0.08,-0.11,-0.12,0.18
19.49766707420349,-0.18,-0.08,-0.18,0.26
19.507703065872192,-0.23,-0.12,-0.04,0.26
19.519220113754272,-0.2,-0.08,-0.04,0.21
19.5278582572937,-0.19,-0.05,-0.15,0.24
19.538027048110962,-0.28,-0.24,-0.18,0.41
19.54809308052063,-0.19,-0.01,-0.38,0.42
19.558300018310547,-0.04,0.35,-0.2,0.4
19.569629192352295,-0.1,0.31,0.15,0.35
19.57989811897278,-0.11,0.15,0.02,0.18
19.588299036026,-0.18,0.02,-0.1,0.2
19.598457098007202,-0.29,-0.01,0.02,0.29
19.60863208770752,-0.35,0.04,-0.2,0.4
19.619903087615967,-0.32,0.08,-0.18,0.37
19.628674030303955,-0.42,0.1,-0.2,0.47
19.638744115829468,-0.58,0.07,-0.21,0.62
19.648898124694824,-0.72,0.08,-0.19,0.74
19.659191131591797,-0.65,0.17,-0.43,0.79
19.670738220214844,-0.65,0.31,-0.52,0.88
19.67921805381775,-0.74,0.35,-0.58,1.0
19.69744110107422,-1.01,0.33,-0.44,1.15
19.699559211730957,-1.31,0.35,-0.11,1.36
19.70941400527954,-1.51,0.43,-0.19,1.58
19.72083306312561,-1.61,0.32,-0.35,1.67
19.7295401096344,-1.53,0.28,-0.02,1.55
19.739997148513794,-1.71,0.44,0.46,1.82
19.7497820854187,-1.89,0.58,0.71,2.1
19.759865045547485,-1.9,0.86,0.68,2.19
19.77128314971924,-1.91,0.92,0.32,2.14
19.780094146728516,-1.68,1.26,-0.52,2.16
19.796988010406494,-1.58,1.72,-0.93,2.51
19.80013608932495,-1.85,2.14,-0.98,2.99
19.810158252716064,-2.2,2.55,-0.01,3.36
19.821732997894287,-2.34,3.04,0.14,3.83
19.830315113067627,-2.29,3.57,0.89,4.33
19.840281009674072,-1.95,3.93,0.57,4.42
19.850487232208252,-1.51,4.28,0.48,4.56
19.860599994659424,-1.35,4.67,0.45,4.88
19.871929168701172,-1.6,5.52,0.52,5.77
19.880746126174927,-2.47,6.27,1.47,6.89
19.896652221679688,-3.58,6.2,1.29,7.27
19.900794982910156,-5.1,5.53,0.21,7.52
19.910877227783203,-6.21,5.33,-0.82,8.22
19.922812938690186,-6.48,5.6,-2.15,8.83
19.931225061416626,-5.87,6.03,-3.23,9.01
19.94136905670166,-4.45,7.22,-4.86,9.77
19.951282024383545,-3.4,6.8,-4.19,8.68
19.961374044418335,-2.46,6.12,-3.23,7.34
19.97335910797119,-2.42,5.52,-2.85,6.66
19.981666088104248,-3.93,2.69,-1.16,4.9
19.996560096740723,-6.59,-2.23,-0.66,6.98
20.001570224761963,-8.02,-1.96,1.35,8.36
20.01172709465027,-9.97,-1.1,2.81,10.41
20.023272037506104,-12.37,-2.99,1.02,12.76
20.03184223175049,-13.02,-3.55,1.42,13.56
20.04208517074585,-12.34,-2.86,1.68,12.77
20.05199408531189,-11.12,-1.94,1.6,11.4
20.062192916870117,-9.66,-1.69,1.74,9.95
20.081184148788452,-8.56,-1.79,2.12,8.99
20.083051204681396,-7.53,-1.58,2.35,8.04
20.09232521057129,-6.65,-1.07,2.34,7.13
20.102323055267334,-6.02,-0.53,2.24,6.44
20.112546920776367,-5.67,-0.07,2.0,6.01
20.124177932739258,-5.5,0.15,1.91,5.82
20.132731914520264,-5.27,0.24,1.97,5.63
20.14281702041626,-4.81,0.42,1.91,5.19
20.152883052825928,-4.07,0.81,1.59,4.44
20.163054943084717,-3.14,1.39,1.13,3.61
20.175835132598877,-2.04,2.02,0.61,2.93
20.183249950408936,-1.03,2.42,0.23,2.64
20.196346044540405,-0.21,2.6,0.05,2.6
20.203205108642578,0.24,2.55,-0.04,2.56
20.21346092224121,0.38,2.44,-0.07,2.47
20.22441816329956,0.32,2.43,-0.11,2.45
20.233517169952393,0.31,2.49,-0.29,2.52
20.24372911453247,0.5,2.63,-0.45,2.71
20.25369691848755,0.9,2.91,-0.73,3.13
20.26392126083374,1.35,3.13,-0.96,3.54
20.27665424346924,1.75,3.27,-1.14,3.88
20.284069061279297,2.12,3.48,-1.27,4.26
20.298460960388184,2.47,3.7,-1.3,4.63
20.304084062576294,2.92,3.99,-1.38,5.13
20.314252138137817,3.55,4.34,-1.44,5.78
20.32551908493042,4.23,4.59,-1.46,6.41
20.334431171417236,4.73,4.49,-1.44,6.67
20.34447407722473,4.94,4.15,-1.29,6.57
20.354648113250732,4.96,3.64,-1.23,6.27
20.36469006538391,5.14,3.15,-1.34,6.17
20.377024173736572,5.48,2.61,-1.53,6.25
20.384888172149658,5.97,2.01,-1.63,6.5
20.397751092910767,6.57,1.45,-1.75,6.95
20.404948234558105,7.55,1.17,-1.67,7.82
20.41498303413391,8.77,1.12,-1.5,8.96
20.42647123336792,9.94,1.12,-1.62,10.13
20.435188055038452,11.0,0.98,-1.68,11.17
20.445312023162842,11.72,0.75,-1.66,11.86
20.45530414581299,12.01,0.27,-1.41,12.09
20.46547222137451,11.63,-0.26,-0.98,11.67
20.48019003868103,10.14,-0.26,-0.84,10.17
20.48565411567688,8.55,-0.23,-0.86,8.59
20.49573516845703,7.26,-0.27,-0.66,7.29
20.50610113143921,6.54,-0.23,-0.46,6.56
20.51591396331787,6.3,-0.44,-0.29,6.32
20.527066230773926,6.78,2.07,-0.59,7.11
20.53610897064209,5.65,3.04,-0.16,6.41
20.546236038208008,1.81,1.28,3.24,3.92
20.55661106109619,-6.48,13.44,-0.86,14.94
20.566471099853516,-5.59,0.88,9.77,11.29
20.580735206604004,-2.13,-7.83,0.73,8.14
20.5864839553833,-4.52,-0.32,0.11,4.53
20.596620082855225,-5.2,2.55,1.52,5.98
20.606544971466064,-0.59,-4.15,-1.52,4.45
20.616701126098633,3.8,-1.16,2.64,4.77
20.62801694869995,4.81,1.71,1.4,5.29
20.636885166168213,5.22,1.69,-0.73,5.53
20.647056102752686,6.39,1.61,-2.12,6.92
20.656891107559204,7.69,2.13,-2.71,8.42
20.66720724105835,8.51,2.15,-5.35,10.27
20.68228507041931,9.07,2.91,-3.35,10.09
20.687294960021973,7.34,3.03,0.51,7.95
20.697301149368286,4.27,1.1,1.45,4.64
20.70743417739868,1.75,-0.17,1.26,2.16
20.71750807762146,0.19,0.23,0.41,0.5
20.72906804084778,-0.82,0.11,-1.25,1.49
20.73769998550415,-1.16,-0.29,-1.05,1.59
20.74790906906128,-0.79,-0.25,0.72,1.09
20.757965087890625,0.23,0.14,0.8,0.84
20.76794719696045,0.78,0.3,0.03,0.83
20.78281307220459,0.99,0.27,-0.17,1.04
20.788147926330566,0.93,0.08,-0.26,0.96
20.798187255859375,0.73,0.15,-0.52,0.9
20.808422088623047,0.61,0.18,-0.27,0.69
20.818433046340942,0.56,0.13,-0.64,0.86
20.82964515686035,0.6,0.15,-0.56,0.83
20.838561058044434,0.19,-0.01,-0.23,0.29
20.84859800338745,-0.31,-0.08,0.04,0.32
20.85871124267578,-0.52,-0.12,0.18,0.56
20.870091915130615,-0.56,-0.19,0.29,0.65
20.88125705718994,-0.33,-0.17,0.24,0.44
20.889469146728516,0.0,-0.07,-0.1,0.12
20.899013996124268,0.13,-0.02,-0.37,0.39
20.909174919128418,0.11,-0.03,-0.42,0.43
20.919172048568726,-0.06,-0.07,-0.38,0.39
20.93048095703125,-0.38,-0.12,-0.04,0.4
20.939789056777954,-0.53,-0.13,0.21,0.58
20.949608087539673,-0.43,-0.04,0.01,0.43
20.959468126296997,-0.41,-0.04,0.06,0.41
20.970746994018555,-0.34,-0.15,0.13,0.39
20.981472969055176,-0.23,-0.18,0.0,0.29
20.989869117736816,-0.08,0.16,-0.17,0.24
20.999802112579346,-0.04,0.17,-0.08,0.19
21.009969234466553,-0.1,0.01,-0.05,0.11
21.019922256469727,-0.16,-0.04,-0.11,0.19
21.031394004821777,-0.16,0.08,-0.03,0.18
21.03992509841919,-0.17,0.16,-0.01,0.23
21.05016803741455,-0.29,0.12,0.0,0.31
21.060211181640625,-0.38,-0.03,0.04,0.38
21.07139301300049,-0.53,-0.13,0.11,0.55
21.082423210144043,-0.58,-0.02,0.06,0.58
21.090341091156006,-0.71,-0.09,-0.15,0.73
21.100532054901123,-0.9,-0.06,-0.29,0.94
21.110836029052734,-0.97,0.35,-0.4,1.1
21.12086820602417,-1.2,0.49,-0.16,1.3
21.132094144821167,-1.46,0.6,-0.19,1.58
21.141098976135254,-1.72,0.83,-0.09,1.91
21.150965213775635,-1.94,0.91,-0.05,2.14
21.161067008972168,-2.11,0.91,0.05,2.29
21.172276973724365,-2.26,0.98,-0.19,2.47
21.183375120162964,-2.25,1.24,-0.13,2.57
21.191338062286377,-2.26,1.67,0.37,2.83
21.201454162597656,-2.17,2.14,0.66,3.11
21.21147394180298,-2.05,2.43,1.13,3.37
21.221768140792847,-1.69,2.6,1.08,3.28
21.233048915863037,-1.38,2.52,1.07,3.06
21.2417311668396,-1.24,2.25,0.61,2.64
21.25187110900879,-1.34,2.2,0.61,2.64
21.261881113052368,-1.44,2.54,0.42,2.94
21.27223491668701,-1.62,2.84,0.77,3.35
21.283863067626953,-1.78,3.36,1.11,3.96
21.292267084121704,-2.12,4.03,0.72,4.61
21.302196979522705,-2.67,5.43,0.09,6.05
21.312381267547607,-3.83,6.48,0.38,7.53
21.322842121124268,-5.3,6.52,1.17,8.48
21.33381414413452,-6.45,5.95,0.77,8.8
21.34253692626953,-6.9,5.9,0.74,9.1
21.3527569770813,-6.55,5.75,0.59,8.73
21.362741947174072,-5.83,5.08,0.52,7.75
21.380128145217896,-5.31,3.6,-0.48,6.43
21.384515047073364,-4.19,4.39,-2.34,6.5
21.39307713508606,-3.68,4.46,-3.0,6.51
21.403018951416016,-3.17,4.09,-3.77,6.4
21.413156032562256,-2.0,4.74,-2.1,5.55
21.423310041427612,-2.12,2.82,1.16,3.71
21.434865951538086,-2.98,0.35,2.3,3.78
21.443416118621826,-5.07,0.26,1.79,5.38
21.453486919403076,-7.99,-0.05,2.39,8.33
21.463539123535156,-11.21,-2.36,3.38,11.94
21.479888916015625,-13.15,-3.76,2.95,13.99
21.484745025634766,-13.84,-3.96,1.35,14.45
21.493816137313843,-13.76,-3.11,1.26,14.16
21.50397825241089,-13.18,-2.09,1.95,13.48
21.51395893096924,-12.03,-1.49,2.07,12.29
21.52391815185547,-9.68,-0.89,1.92,9.9
21.535365104675293,-6.99,-0.31,1.78,7.21
21.544273138046265,-4.77,0.09,1.68,5.05
21.554310083389282,-2.95,0.62,1.28,3.27
21.56448006629944,-1.69,1.3,0.83,2.28
21.580018997192383,-1.12,1.89,0.55,2.26
21.58572506904602,-1.17,2.13,0.5,2.48
21.5945782661438,-1.54,1.95,0.46,2.52
21.604598999023438,-1.7,1.75,0.22,2.44
21.614797115325928,-1.24,1.97,-0.04,2.32
21.624835968017578,-0.58,2.21,-0.3,2.3
21.63596510887146,-0.07,2.21,-0.42,2.25
21.645023107528687,0.32,2.13,-0.32,2.17
21.655156135559082,0.68,2.23,-0.49,2.38
21.66672706604004,0.93,2.31,-0.74,2.59
21.68087911605835,0.95,2.22,-0.78,2.53
21.686601161956787,0.89,2.08,-0.7,2.36
21.695532083511353,0.99,2.1,-0.61,2.4
21.705414056777954,1.24,2.34,-0.59,2.71
21.71559715270996,1.6,2.73,-0.74,3.24
21.725646018981934,1.93,3.06,-0.58,3.66
21.736999988555908,2.22,3.17,-0.45,3.89
21.74589705467224,2.57,3.28,-0.41,4.18
21.75644612312317,2.91,3.71,-0.34,4.72
21.767245054244995,3.08,4.22,-0.75,5.27
21.78054714202881,3.55,4.86,-1.32,6.16
21.78734016418457,4.48,5.49,-2.0,7.36
21.79634714126587,5.75,5.75,-2.83,8.61
21.80658197402954,6.78,4.74,-3.53,8.99
21.816545963287354,7.52,2.89,-3.55,8.8
21.826487064361572,8.47,1.0,-2.63,8.92
21.838099002838135,9.26,-0.2,-1.88,9.45
21.846713066101074,10.45,-0.25,-2.06,10.65
21.856651067733765,11.37,-0.01,-2.68,11.68
21.868242263793945,12.14,-0.12,-2.84,12.46
21.88043713569641,12.66,-0.62,-2.81,12.98
21.888165950775146,13.46,-1.19,-2.55,13.75
21.897229194641113,14.17,-1.51,-2.47,14.46
21.907124996185303,13.96,-1.59,-2.37,14.24
21.91738510131836,12.0,-1.24,-2.16,12.25
21.9274320602417,9.66,-0.73,-1.81,9.85
21.938858032226562,7.14,1.25,-0.43,7.26
21.947611093521118,4.54,3.81,-1.54,6.12
21.95762300491333,-3.09,10.67,3.72,11.71
21.968849182128906,-15.74,23.54,5.17,28.78
21.979894161224365,-3.69,-10.11,8.02,13.42
21.989508152008057,-3.09,-12.97,-9.15,16.17
21.997880935668945,-6.81,-0.52,-3.06,7.48
22.007994174957275,-4.0,-0.78,6.6,7.75
22.018047094345093,0.77,-2.42,7.13,7.56
22.02819514274597,3.88,-1.6,4.19,5.93
22.03984022140503,5.56,0.57,0.76,5.64
22.048445224761963,7.24,2.9,-1.88,8.02
22.058420181274414,8.27,3.16,-4.85,10.09
22.068445205688477,9.37,2.8,-8.79,13.14
22.07981300354004,10.08,3.12,-3.36,11.07
22.090264081954956,8.09,3.12,-0.72,8.7
22.09880805015564,5.02,1.82,0.38,5.35
22.108877182006836,3.1,0.37,3.16,4.44
22.118954181671143,2.31,0.18,1.9,2.99
22.128993034362793,1.85,0.41,-0.65,2.0
22.140953063964844,1.23,0.35,-0.86,1.54
22.14923620223999,0.49,0.03,-0.41,0.63
22.159335136413574,-0.08,0.0,-0.2,0.21
22.169270038604736,-0.46,0.11,0.2,0.51
22.179694175720215,-0.57,-0.02,0.11,0.58
22.191041946411133,-0.52,-0.16,-0.3,0.62
22.19952917098999,-0.23,-0.06,-0.52,0.57
22.209602117538452,-0.03,0.02,-0.58,0.58
22.219971179962158,-0.04,0.0,-0.71,0.71
22.229876041412354,0.03,-0.01,-0.63,0.63
22.241523265838623,-0.15,-0.13,-0.21,0.28
22.249982118606567,-0.3,-0.2,0.15,0.39
22.260141134262085,-0.22,-0.05,0.25,0.33
22.270071983337402,-0.04,0.08,0.18,0.2
22.280100107192993,0.08,0.05,0.05,0.1
22.291244983673096,0.17,0.03,-0.13,0.21
22.300400257110596,0.55,0.12,-0.5,0.75
22.310397148132324,0.59,0.08,-0.61,0.85
22.320405960083008,0.18,-0.07,-0.35,0.39
22.330595016479492,-0.2,-0.15,0.1,0.26
22.341886043548584,-0.48,-0.06,0.31,0.57
22.350714206695557,-0.58,0.05,0.22,0.62
22.36095404624939,-0.54,0.09,0.12,0.56
22.370957136154175,-0.44,0.07,0.02,0.44
22.381035089492798,-0.3,0.04,-0.17,0.34
22.392268180847168,-0.25,0.02,-0.24,0.34
22.401077032089233,-0.26,0.0,-0.15,0.3
22.4112229347229,-0.35,-0.03,-0.09,0.36
22.42131209373474,-0.48,-0.05,-0.14,0.5
22.431395053863525,-0.55,-0.08,-0.19,0.58
22.443213939666748,-0.66,-0.13,0.03,0.67
22.451600074768066,-0.71,-0.03,-0.02,0.71
22.462947130203247,-0.57,0.39,-0.22,0.72
22.471723079681396,-0.56,0.44,0.02,0.71
22.48178505897522,-0.55,0.5,0.0,0.74
22.493089199066162,-0.56,0.54,0.03,0.77
22.501893997192383,-0.61,0.6,-0.02,0.85
22.5120792388916,-0.67,0.6,-0.43,0.99
22.522061109542847,-1.0,0.38,-0.45,1.16
22.532292127609253,-1.33,0.49,-0.11,1.42
22.54365825653076,-1.54,0.85,0.1,1.76
22.552377223968506,-1.71,1.25,0.11,2.12
22.56363010406494,-1.97,1.65,0.62,2.64
22.579291105270386,-2.07,2.09,0.74,3.03
22.58271026611328,-2.09,2.57,0.49,3.34
22.593932151794434,-2.15,2.89,0.71,3.67
22.60280203819275,-2.31,3.07,0.92,3.95
22.612816095352173,-2.43,3.26,0.89,4.16
22.623255252838135,-2.41,3.61,0.89,4.43
22.633028030395508,-2.5,4.13,0.71,4.87
22.64438509941101,-2.93,4.99,0.3,5.79
22.653279066085815,-3.66,6.41,1.02,7.45
22.664748191833496,-4.81,6.97,1.8,8.65
22.680357933044434,-6.24,6.52,1.21,9.1
22.68341302871704,-7.64,5.95,1.48,9.79
22.694765090942383,-8.39,5.76,0.76,10.2
22.703649044036865,-7.98,5.97,0.07,9.96
22.713638067245483,-6.48,5.83,-0.42,8.72
22.723652124404907,-5.2,4.59,-1.94,7.2
22.733906269073486,-4.37,3.94,-3.74,6.97
22.745188236236572,-2.63,4.94,-3.01,6.35
22.75410008430481,-1.54,5.47,-3.28,6.56
22.765419006347656,-2.65,2.56,-2.43,4.41
22.780055046081543,-4.23,-2.01,-0.68,4.73
22.78432607650757,-5.77,-4.87,2.62,7.99
22.795566082000732,-7.57,-3.06,3.01,8.7
22.804481029510498,-9.34,-1.9,1.48,9.64
22.814443111419678,-10.97,-2.66,1.17,11.34
22.82460594177246,-12.05,-3.47,1.82,12.67
22.834649085998535,-12.15,-3.47,1.25,12.69
22.84610605239868,-11.56,-2.73,1.11,11.92
22.85490322113037,-10.76,-2.02,1.08,11.0
22.864913940429688,-9.84,-1.48,0.89,9.99
22.879542112350464,-8.16,-0.74,0.61,8.21
22.885040044784546,-6.58,-0.21,0.47,6.6
22.89638614654541,-5.31,0.16,0.31,5.32
22.905322074890137,-4.36,0.31,0.42,4.39
22.91537308692932,-3.68,0.43,0.64,3.75
22.925442218780518,-3.33,0.59,0.64,3.44
22.9354829788208,-3.13,0.85,0.45,3.27
22.947021007537842,-2.75,1.33,0.04,3.05
22.95618510246277,-2.04,2.07,-0.24,2.91
22.965781211853027,-1.25,2.69,-0.49,3.0
22.979658126831055,-0.51,3.12,-0.71,3.24
22.985991954803467,0.04,3.25,-0.74,3.33
22.997234106063843,0.38,3.13,-0.71,3.23
23.00651216506958,0.57,2.97,-0.66,3.09
23.016125202178955,0.74,2.9,-0.67,3.06
23.02620506286621,0.94,3.0,-0.63,3.2
23.036354064941406,1.23,3.19,-0.77,3.5
23.04770803451538,1.5,3.3,-0.86,3.72
23.056841135025024,1.7,3.37,-0.86,3.87
23.066601037979126,1.89,3.39,-0.8,3.96
23.079357147216797,2.2,3.68,-0.57,4.32
23.08670425415039,2.89,4.38,-0.74,5.29
23.097949981689453,4.29,4.61,-0.84,6.35
23.10676622390747,5.66,4.9,-1.25,7.59
23.116958141326904,6.75,4.66,-1.19,8.28
23.127087116241455,7.48,3.72,-0.66,8.38
23.13722515106201,7.82,2.79,-0.58,8.32
23.14860725402832,8.06,2.1,-0.83,8.37
23.157302141189575,8.28,1.38,-1.09,8.46
23.167360067367554,8.56,0.61,-1.24,8.67
23.179426193237305,9.15,-0.06,-1.08,9.21
23.187618255615234,9.87,-0.53,-0.74,9.91
23.198792934417725,10.8,-0.72,-0.66,10.84
23.207711219787598,11.62,-0.73,-0.64,11.66
23.21796703338623,12.5,-0.61,-0.93,12.54
23.227955102920532,12.69,-0.63,-1.06,12.74
23.23796319961548,12.71,-0.76,-0.75,12.75
23.24931526184082,12.63,-1.18,-0.38,12.69
23.259547233581543,11.42,-0.22,0.62,11.43
23.268139123916626,9.2,3.27,-2.9,10.18
23.279259204864502,3.5,6.18,1.88,7.34
23.28840923309326,-7.49,22.74,2.32,24.05
23.299739122390747,-2.45,-3.91,3.99,6.1
23.308620929718018,-2.4,-9.98,-2.1,10.47
23.318520069122314,-7.07,0.56,1.48,7.24
23.3286771774292,-5.02,-1.73,2.69,5.95
23.338747024536133,-1.97,-3.98,2.02,4.87
23.350134134292603,2.26,-1.17,6.03,6.54
23.360202074050903,5.06,0.59,2.42,5.63
23.368947982788086,6.42,1.56,-3.05,7.27
23.379348039627075,7.96,2.14,-6.88,10.73
23.389513969421387,10.21,4.05,-5.17,12.13
23.40048122406006,9.89,4.16,0.06,10.72
23.40930700302124,6.44,1.87,1.36,6.84
23.419345140457153,3.94,0.05,-0.43,3.96
23.429540157318115,3.09,0.25,-1.11,3.29
23.439998149871826,2.35,0.65,-0.41,2.47
23.451065063476562,1.36,0.44,0.94,1.71
23.460902214050293,0.81,0.27,1.59,1.8
23.469830989837646,0.58,0.12,-0.18,0.61
23.47984504699707,0.15,-0.04,-0.68,0.69
23.49011206626892,-0.39,0.01,0.18,0.42
23.50131607055664,-0.65,-0.06,0.51,0.82
23.510234117507935,-0.6,-0.07,0.1,0.61
23.520182132720947,-0.33,-0.07,-0.6,0.68
23.53042221069336,-0.05,-0.04,-0.72,0.72
23.540313243865967,-0.08,-0.05,-0.75,0.75
23.551866054534912,-0.25,-0.06,-0.32,0.41
23.56183624267578,-0.34,-0.05,-0.08,0.35
23.570656061172485,-0.39,-0.05,-0.14,0.41
23.58067226409912,-0.42,-0.09,0.09,0.43
23.590647220611572,-0.42,-0.1,0.35,0.55
23.602231979370117,-0.36,-0.08,0.39,0.53
23.610976219177246,-0.21,-0.01,0.14,0.25
23.62096118927002,-0.02,0.04,0.0,0.04
23.631145000457764,0.09,0.0,-0.37,0.38
23.641249179840088,0.03,-0.06,-0.51,0.51
23.6524441242218,-0.14,-0.03,-0.25,0.28
23.664978981018066,-0.27,-0.01,0.13,0.29
23.671602249145508,-0.32,-0.03,0.27,0.41
23.68166208267212,-0.24,-0.05,0.13,0.27
23.69165802001953,-0.37,-0.28,-0.19,0.5
23.70276713371277,-0.35,0.08,-0.15,0.38
23.71187400817871,-0.26,0.24,-0.22,0.41
23.721795082092285,-0.28,0.15,-0.25,0.4
23.732038021087646,-0.39,0.0,-0.09,0.4
23.742066144943237,-0.46,-0.17,0.06,0.49
23.75377321243286,-0.48,-0.1,0.18,0.52
23.762262105941772,-0.37,0.07,0.15,0.4
23.77236008644104,-0.27,0.17,0.14,0.34
23.782326221466064,-0.16,0.28,0.03,0.32
23.792593955993652,-0.13,0.31,-0.27,0.43
23.803709030151367,-0.31,0.29,-0.29,0.51
23.812700033187866,-0.49,0.35,-0.33,0.68
23.8230562210083,-0.76,0.4,-0.15,0.87
23.832804203033447,-1.0,0.47,0.07,1.1
23.842859268188477,-1.18,0.54,0.31,1.33
23.85429620742798,-1.3,0.45,0.29,1.4
23.863028049468994,-1.35,0.48,0.37,1.47
23.880118131637573,-1.47,0.56,0.61,1.68
23.883179187774658,-1.43,0.69,0.42,1.64
23.89344024658203,-1.33,0.92,0.16,1.62
23.90490198135376,-1.36,1.14,-0.02,1.77
23.913569927215576,-1.35,1.46,-0.27,2.0
23.923586130142212,-1.44,1.67,-0.26,2.22
23.93374013900757,-1.51,1.83,-0.06,2.37
23.943642139434814,-1.51,2.0,0.41,2.53
23.955387115478516,-1.39,2.24,0.6,2.7
23.96395206451416,-1.25,2.32,0.42,2.66
23.9803409576416,-1.17,2.54,-0.03,2.79
23.98420810699463,-1.34,2.81,-0.56,3.16
23.994215965270996,-1.71,3.39,0.07,3.79
24.005401134490967,-2.14,3.54,1.47,4.39
24.01437997817993,-2.44,3.93,0.6,4.66
24.024402141571045,-3.19,4.64,0.96,5.71
24.034505128860474,-4.41,4.83,0.95,6.6
24.044601917266846,-5.35,5.38,0.3,7.59
24.064332962036133,-6.09,5.77,0.46,8.4
24.0662522315979,-6.08,5.77,-0.07,8.38
24.07482624053955,-4.86,6.44,-1.15,8.14
24.08476710319519,-3.7,5.44,-1.37,6.72
24.09497308731079,-2.38,5.13,-2.01,6.0
24.10650396347046,-0.88,6.65,-2.65,7.21
24.11511516571045,-1.07,6.1,-1.97,6.49
24.125150203704834,-3.09,2.73,-2.03,4.59
24.13522720336914,-6.65,-1.96,3.61,7.81
24.145300149917603,-9.7,-3.06,4.58,11.15
24.16468620300293,-10.02,-1.05,1.14,10.13
24.16663694381714,-10.56,-1.58,0.7,10.7
24.175652027130127,-12.1,-3.11,2.24,12.69
24.185601234436035,-12.57,-3.33,3.38,13.43
24.195730209350586,-11.66,-2.42,2.39,12.14
24.207380056381226,-10.55,-1.64,1.65,10.8
24.215930938720703,-9.84,-1.52,1.81,10.11
24.22611904144287,-8.74,-1.35,2.09,9.08
24.23611307144165,-7.09,-0.9,1.94,7.4
24.246199131011963,-5.61,-0.35,1.87,5.92
24.265908241271973,-4.62,0.09,1.98,5.02
24.267974138259888,-4.35,0.39,1.95,4.78
24.276401042938232,-4.42,0.47,1.44,4.67
24.286437034606934,-4.16,0.98,0.8,4.34
24.296529054641724,-3.5,1.77,0.36,3.93
24.30809211730957,-2.69,2.46,-0.05,3.64
24.316779136657715,-1.85,2.9,-0.51,3.47
24.3268141746521,-1.09,3.14,-0.8,3.41
24.336839199066162,-0.53,3.13,-0.91,3.3
24.347060203552246,-0.19,2.97,-1.04,3.15
24.359846115112305,-0.07,2.76,-1.19,3.0
24.367156982421875,-0.18,2.56,-1.31,2.88
24.381350994110107,-0.38,2.33,-1.4,2.74
24.387264251708984,-0.5,2.15,-1.48,2.65
24.39735698699951,-0.37,2.1,-1.49,2.6
24.40853714942932,-0.14,2.16,-1.52,2.64
24.417551040649414,0.09,2.13,-1.62,2.67
24.427735090255737,0.27,2.15,-1.63,2.71
24.437958240509033,0.66,2.39,-1.54,2.91
24.447838068008423,1.21,2.91,-1.59,3.52
24.465134143829346,1.89,3.59,-1.75,4.41
24.46787118911743,2.48,4.03,-1.94,5.11
24.47809600830078,2.91,4.23,-2.05,5.52
24.488089084625244,3.33,4.22,-1.8,5.66
24.498308181762695,3.57,3.73,-1.35,5.33
24.509567260742188,3.76,3.15,-1.29,5.07
24.518349170684814,4.28,2.81,-1.49,5.33
24.528439044952393,5.11,2.55,-1.53,5.91
24.538615226745605,5.76,2.23,-1.39,6.33
24.548684120178223,6.38,2.01,-1.42,6.83
24.564407110214233,6.98,1.88,-1.78,7.44
24.568728923797607,7.74,1.85,-1.95,8.19
24.57880926132202,8.64,1.8,-1.99,9.04
24.588853120803833,9.49,1.42,-1.84,9.77
24.599069118499756,9.82,0.42,-1.5,9.94
24.610275268554688,9.23,-0.69,-0.95,9.3
24.61915922164917,8.31,-1.05,-0.21,8.37
24.62916898727417,7.94,-0.89,-0.28,7.99
24.639677047729492,8.11,-0.67,-0.84,8.18
24.64934492111206,8.91,-0.37,-1.12,8.98
24.665066242218018,9.72,0.1,-1.75,9.87
24.669745922088623,9.97,0.3,-2.09,10.19
24.679633140563965,9.65,-0.01,-1.65,9.79
24.69013214111328,9.13,-0.42,-1.36,9.24
24.699860095977783,8.56,0.77,-1.03,8.65
24.711127042770386,6.81,1.62,-1.15,7.09
24.72002601623535,0.54,9.65,-3.56,10.29
24.730051040649414,-8.94,22.13,5.74,24.54
24.740232944488525,-2.15,-5.9,11.52,13.12
24.750275135040283,-2.79,-9.63,-6.9,12.17
24.764256954193115,-4.42,-2.47,-0.56,5.09
24.7703640460968,-3.7,0.52,6.7,7.67
24.78041124343872,-0.87,-1.28,4.55,4.8
24.79034996032715,3.24,-1.36,3.01,4.62
24.80064296722412,4.39,0.83,0.99,4.57
24.811907052993774,4.49,1.66,-0.71,4.83
24.820792198181152,5.59,1.43,-2.11,6.14
24.83083200454712,5.79,2.17,-2.21,6.56
24.840874195098877,4.94,2.29,-2.29,5.9
24.85218906402588,3.27,0.76,-6.22,7.06
24.86421823501587,2.92,0.75,-8.1,8.64
24.87108325958252,3.24,1.49,-3.35,4.89
24.88122320175171,3.13,1.44,1.72,3.85
24.89126205444336,2.9,0.74,3.94,4.94
24.901571035385132,2.52,0.54,2.18,3.37
24.91282606124878,2.11,0.68,0.52,2.27
24.92158794403076,1.59,0.48,-0.87,1.87
24.931628227233887,1.04,0.23,0.34,1.11
24.94167995452881,0.66,0.05,1.13,1.3
24.95285415649414,0.61,0.19,0.18,0.66
24.96376895904541,0.74,0.34,-0.6,1.01
24.97199296951294,0.72,0.18,-1.18,1.39
24.981994152069092,0.38,-0.08,-0.96,1.03
24.992200136184692,0.12,-0.01,-0.45,0.46
25.002222061157227,-0.1,-0.02,-0.41,0.42
25.01326894760132,-0.28,-0.02,-0.27,0.38
25.022315979003906,-0.54,-0.07,0.31,0.62
25.03233313560486,-0.66,-0.19,0.41,0.79
25.042548179626465,-0.56,-0.16,0.22,0.62
25.053646087646484,-0.35,-0.06,0.13,0.37
25.064533233642578,-0.17,0.02,0.11,0.2
25.073090076446533,0.02,0.02,-0.09,0.09
25.08284306526184,0.29,0.0,-0.26,0.38
25.092955112457275,0.49,0.02,-0.23,0.54
25.103191137313843,0.48,-0.01,-0.06,0.48
25.11449098587036,0.45,0.0,-0.1,0.46
25.123549938201904,0.78,0.15,-0.17,0.81
25.133470058441162,0.69,0.12,-0.07,0.7
25.143463134765625,0.24,0.04,0.07,0.25
25.154898166656494,0.01,0.01,0.01,0.01
25.16630220413208,-0.14,0.0,-0.14,0.19
25.173605918884277,-0.37,-0.04,-0.06,0.37
25.18376398086548,-0.55,-0.04,-0.12,0.56
25.193822145462036,-0.65,-0.03,-0.18,0.67
25.204020023345947,-0.73,-0.02,-0.15,0.74
25.215249061584473,-0.81,-0.06,-0.02,0.81
25.224070072174072,-0.89,-0.14,0.12,0.9
25.23420524597168,-1.0,-0.38,0.06,1.07
25.244335174560547,-0.81,0.3,-0.2,0.88
25.25437593460083,-0.73,0.46,-0.05,0.86
25.266229152679443,-0.69,0.33,-0.2,0.79
25.274476051330566,-0.74,0.24,-0.31,0.83
25.284476041793823,-0.8,0.25,-0.33,0.9
25.294640064239502,-0.88,0.3,-0.16,0.94
25.304734230041504,-0.9,0.28,0.11,0.94
25.316092014312744,-0.89,0.31,0.37,1.01
25.324920177459717,-0.81,0.31,0.4,0.95
25.33499813079834,-0.53,0.34,-0.13,0.64
25.345123052597046,-0.05,0.5,-0.84,0.97
25.355131149291992,-0.13,0.67,-0.95,1.16
25.366579055786133,-0.71,0.74,-0.7,1.24
25.375339031219482,-1.22,1.0,-0.34,1.61
25.385351181030273,-1.59,1.35,0.19,2.09
25.395412921905518,-1.84,1.75,0.22,2.54
25.405488967895508,-1.96,2.2,0.12,2.94
25.41687297821045,-2.07,2.7,0.21,3.4
25.42582893371582,-2.15,3.31,0.65,4.0
25.435792922973633,-2.22,3.71,1.06,4.45
25.446120262145996,-2.32,3.81,1.24,4.62
25.46297812461853,-2.44,4.01,1.22,4.84
25.467628955841064,-2.8,4.54,1.03,5.43
25.476165056228638,-3.54,5.47,1.36,6.65
25.486205101013184,-4.55,5.84,1.97,7.66
25.49629497528076,-5.74,5.56,1.22,8.08
25.506782054901123,-6.76,5.55,0.77,8.78
25.518043994903564,-7.36,5.44,0.51,9.16
25.526632070541382,-6.97,5.55,-0.72,8.93
25.536728143692017,-5.7,5.7,-1.76,8.25
25.54693603515625,-4.28,5.38,-3.33,7.63
25.563807010650635,-3.02,5.55,-3.36,7.15
25.568417072296143,-1.99,6.12,-3.26,7.21
25.57710313796997,-2.2,5.22,-2.84,6.33
25.58699321746826,-3.78,1.75,-2.08,4.65
25.597209930419922,-5.99,-2.31,1.21,6.53
25.60717010498047,-8.23,-3.26,4.09,9.75
25.61864709854126,-9.46,-1.37,2.57,9.89
25.627429962158203,-10.65,-1.66,0.81,10.8
25.637418270111084,-11.9,-2.78,1.2,12.27
25.649088144302368,-12.5,-2.77,2.79,13.1
25.664875030517578,-12.03,-2.03,2.67,12.48
25.669631958007812,-10.99,-1.49,2.02,11.27
25.677807092666626,-9.37,-1.24,2.07,9.67
25.687833070755005,-7.85,-1.07,2.33,8.25
25.69797110557556,-6.5,-0.97,2.01,6.87
25.708141088485718,-5.37,-0.74,1.62,5.65
25.71952724456787,-4.58,-0.4,1.49,4.83
25.72824001312256,-4.18,-0.01,1.58,4.46
25.738285064697266,-4.16,0.26,1.51,4.43
25.75024914741516,-4.23,0.34,1.29,4.43
25.764523029327393,-4.05,0.52,1.05,4.21
25.769782066345215,-3.57,0.95,0.75,3.76
25.7785701751709,-2.84,1.5,0.49,3.24
25.788604259490967,-1.98,2.01,0.18,2.82
25.798759937286377,-1.1,2.46,-0.11,2.69
25.8088960647583,-0.46,2.7,-0.21,2.74
25.82045316696167,-0.16,2.62,-0.17,2.63
25.829065084457397,-0.12,2.5,-0.16,2.5
25.839054107666016,-0.11,2.54,-0.33,2.56
25.850511074066162,0.02,2.77,-0.6,2.83
25.864209175109863,0.28,3.13,-0.83,3.25
25.870715141296387,0.65,3.48,-1.07,3.69
25.879480123519897,1.04,3.68,-1.14,3.99
25.88991403579712,1.46,3.74,-1.14,4.17
25.899590015411377,1.93,3.88,-0.98,4.44
25.90985608100891,2.64,4.48,-1.09,5.31
25.921038150787354,3.57,5.31,-1.48,6.56
25.929903030395508,5.51,8.26,-2.42,10.21
25.940505981445312,4.02,4.04,-1.19,5.82
25.951354026794434,4.1,2.85,0.57,5.02
25.96400809288025,5.06,2.26,0.39,5.55
25.97144913673401,5.37,1.9,-1.0,5.78
25.980359077453613,6.03,2.22,-2.13,6.76
25.990253925323486,7.1,2.94,-1.9,7.91
26.00034999847412,7.68,2.25,-1.4,8.12
26.0104660987854,7.42,0.84,-0.47,7.48
26.02170991897583,7.42,0.84,-0.55,7.48
26.030741214752197,8.2,1.76,-1.3,8.48
26.040555000305176,8.95,1.79,-1.74,9.29
26.050841093063354,9.35,1.12,-1.78,9.58
26.063552141189575,9.55,0.2,-1.37,9.64
26.072154998779297,9.89,-0.42,-0.98,9.94
26.08112907409668,10.19,-0.3,-1.34,10.28
26.091068267822266,10.51,0.14,-1.94,10.68
26.101250171661377,10.55,0.31,-2.25,10.79
26.11138105392456,9.97,1.58,-2.02,10.29
26.12267804145813,7.84,3.26,-2.48,8.84
26.131550073623657,4.34,-0.36,0.6,4.39
26.14171600341797,-1.43,15.71,-2.82,16.02
26.15165615081787,-3.45,10.66,5.41,12.44
26.163718223571777,-0.38,-6.35,1.35,6.5
26.173264026641846,-4.15,-4.55,-5.05,7.96
26.181710243225098,-3.95,-3.76,1.57,5.67
26.19188404083252,-2.96,-1.56,3.12,4.57
26.201828956604004,-0.09,-0.97,3.14,3.28
26.21206521987915,4.19,-1.65,4.3,6.22
26.223767042160034,4.92,1.26,2.79,5.79
26.232303142547607,5.3,2.46,-0.25,5.84
26.242489099502563,6.05,1.56,-1.72,6.48
26.252479076385498,5.85,1.59,-1.69,6.29
26.263601064682007,5.93,2.02,-0.95,6.33
26.27430295944214,4.87,1.46,-4.84,7.01
26.28267812728882,4.9,1.63,-4.95,7.15
26.29276418685913,5.08,2.25,-1.6,5.78
26.302778244018555,3.99,1.6,-0.52,4.33
26.3130202293396,3.08,0.51,1.84,3.62
26.32463502883911,2.27,0.33,2.28,3.23
26.333158016204834,1.43,0.36,-0.47,1.54
26.343152046203613,0.93,0.45,-1.2,1.58
26.353210926055908,0.24,0.08,0.08,0.26
26.36328911781311,-0.19,-0.07,0.6,0.63
26.374659061431885,-0.01,0.11,0.09,0.14
26.383522033691406,0.38,0.27,-0.5,0.68
26.393555164337158,0.43,0.14,-0.24,0.51
26.40356206893921,0.37,0.01,-0.28,0.46
26.413705110549927,0.41,0.12,-0.38,0.57
26.425050258636475,0.45,0.13,-0.37,0.59
26.433889150619507,0.39,0.09,-0.52,0.65
26.445187091827393,0.14,-0.06,-0.37,0.4
26.453947067260742,-0.2,-0.06,0.05,0.21
26.464025020599365,-0.37,-0.08,0.2,0.42
26.47520112991333,-0.47,-0.12,0.35,0.59
26.48405909538269,-0.37,-0.04,0.05,0.37
26.494078159332275,-0.15,0.04,-0.48,0.5
26.504021167755127,-0.15,-0.01,-0.52,0.54
26.514349937438965,-0.3,-0.06,-0.35,0.46
26.52540397644043,-0.45,-0.1,-0.16,0.48
26.53443717956543,-0.61,-0.13,0.13,0.63
26.54543399810791,-0.78,-0.07,0.5,0.92
26.554611206054688,-0.78,0.08,0.41,0.88
26.564720153808594,-0.43,0.11,0.0,0.44
26.57571005821228,-0.25,0.24,-0.12,0.36
26.584829092025757,-0.26,0.21,-0.16,0.37
26.59494113922119,-0.27,0.07,-0.44,0.52
26.604873180389404,-0.45,0.02,-0.46,0.64
26.615082263946533,-0.7,0.12,-0.36,0.79
26.626063108444214,-1.03,0.06,-0.08,1.03
26.635164260864258,-1.24,0.09,0.18,1.25
26.646111011505127,-1.42,0.05,0.5,1.5
26.65542697906494,-1.33,0.27,0.37,1.4
26.665497064590454,-1.22,0.2,0.11,1.24
26.67652416229248,-1.11,0.17,-0.07,1.12
26.68559503555298,-1.08,0.53,-0.17,1.21
26.69573712348938,-0.99,0.79,-0.3,1.3
26.705735206604004,-1.03,0.8,0.04,1.3
26.715891122817993,-0.96,0.74,-0.1,1.21
26.726816177368164,-0.74,0.75,0.03,1.05
26.7360200881958,-0.45,0.79,0.29,0.95
26.74691104888916,-0.1,1.15,0.58,1.29
26.7615909576416,-0.03,1.45,0.46,1.52
26.7662091255188,-0.21,1.76,-0.13,1.77
26.777276039123535,-0.49,1.96,0.04,2.02
26.786372184753418,-0.73,2.15,0.22,2.28
26.796589136123657,-1.18,2.36,0.46,2.67
26.806642055511475,-1.52,2.64,0.4,3.07
26.816736221313477,-1.86,2.85,0.21,3.4
26.827714920043945,-2.17,3.2,0.1,3.86
26.836833000183105,-2.61,3.58,0.12,4.43
26.8468599319458,-3.13,4.22,0.18,5.25
26.861752033233643,-3.61,5.64,0.63,6.72
26.867064952850342,-4.35,7.11,1.04,8.39
26.878117084503174,-5.4,7.83,1.26,9.59
26.887176036834717,-6.5,7.81,1.1,10.22
26.897375106811523,-7.25,7.29,0.67,10.3
26.908885955810547,-6.97,7.04,0.14,9.9
26.918780088424683,-6.05,6.18,0.45,8.66
26.92991304397583,-5.32,4.28,-0.45,6.84
26.937698125839233,-4.72,3.59,-2.07,6.28
26.947701930999756,-3.52,4.53,-2.63,6.31
26.961766242980957,-2.15,6.1,-2.76,7.03
26.967859268188477,-2.82,3.44,-1.44,4.67
26.978984117507935,-3.6,1.28,-0.2,3.82
26.989458084106445,-3.61,-0.3,-0.11,3.62
26.998202085494995,-3.91,-1.92,0.5,4.38
27.009730100631714,-6.29,-1.52,2.17,6.82
27.01954412460327,-9.47,-2.28,2.86,10.15
27.03189516067505,-11.62,-3.36,2.83,12.42
27.040953159332275,-12.14,-3.15,2.74,12.83
27.04854106903076,-12.08,-2.8,2.27,12.6
27.06216812133789,-11.59,-2.16,2.46,12.04
27.068660259246826,-10.85,-1.64,2.52,11.25
27.07987403869629,-9.9,-1.35,2.27,10.24
27.088886260986328,-8.1,-0.91,2.02,8.39
27.098994255065918,-6.35,-0.65,1.88,6.65
27.109085083007812,-4.89,-0.3,1.73,5.19
27.12051010131836,-3.65,0.22,1.69,4.02
27.132576942443848,-2.75,0.97,1.71,3.38
27.141541004180908,-2.14,1.67,1.58,3.14
27.149306058883667,-1.63,2.32,1.46,3.18
27.16215991973877,-1.15,2.8,1.12,3.22
27.169590950012207,-0.76,3.03,0.83,3.23
27.180618047714233,-0.5,3.07,0.56,3.16
27.1911940574646,-0.3,2.95,0.3,2.98
27.203314065933228,-0.06,2.8,0.16,2.8
27.209887981414795,0.29,2.75,0.15,2.76
27.220627069473267,0.59,2.72,-0.18,2.78
27.232298135757446,0.82,2.72,-0.67,2.91
27.242610931396484,1.05,2.91,-0.96,3.23
27.252679109573364,1.31,3.17,-1.12,3.6
27.26504898071289,1.63,3.29,-1.15,3.84
27.270638942718506,2.0,3.31,-1.02,3.99
27.282119035720825,2.49,3.36,-0.82,4.26
27.290832996368408,2.98,3.47,-0.74,4.63
27.300976037979126,3.52,3.72,-0.49,5.14
27.311007022857666,4.14,4.27,-0.48,5.96
27.32121992111206,4.93,5.0,-0.87,7.07
27.33268904685974,5.63,5.45,-1.3,7.94
27.342459201812744,6.01,4.92,-1.57,7.92
27.351271152496338,6.02,3.48,-1.68,7.15
27.36430597305298,6.13,2.01,-1.36,6.59
27.3714280128479,6.46,0.78,-0.99,6.58
27.38287925720215,6.96,0.02,-1.03,7.03
27.391624927520752,7.82,0.02,-1.37,7.93
27.40169405937195,9.01,0.33,-1.53,9.14
27.41176700592041,10.25,0.54,-1.69,10.4
27.421849250793457,11.2,0.48,-1.79,11.35
27.43328309059143,11.87,0.17,-1.72,11.99
27.443037033081055,12.14,-0.45,-1.41,12.22
27.452277183532715,11.75,-1.15,-1.28,11.87
27.46393609046936,10.43,-1.16,-1.29,10.57
27.472275257110596,9.0,-0.67,-1.27,9.11
27.48362922668457,7.67,-0.24,-1.22,7.77
27.492577075958252,6.58,0.11,-1.26,6.7
27.502536058425903,5.72,2.2,-0.49,6.14
27.512682914733887,3.95,3.57,-1.6,5.55
27.522826194763184,-3.82,11.85,-1.75,12.57
27.534013032913208,-13.9,19.53,4.44,24.37
27.54418110847473,-3.04,-10.24,5.73,12.12
27.55296802520752,-2.39,-10.79,-9.22,14.39
27.562961101531982,-5.21,0.68,-0.85,5.32
27.573430061340332,-3.94,0.39,3.95,5.59
27.58433723449707,0.64,-3.46,2.2,4.14
27.59321117401123,4.25,-1.01,3.34,5.49
27.603238105773926,5.71,1.18,2.53,6.35
27.613299131393433,6.86,2.44,1.28,7.39
27.623652935028076,7.95,2.7,-0.1,8.39
27.63486909866333,8.18,2.72,-0.41,8.63
27.646728038787842,6.81,2.21,-1.66,7.34
27.653724193572998,5.16,1.29,-6.59,8.46
27.66397523880005,5.33,2.05,-4.03,6.98
27.6737642288208,4.28,2.06,-2.41,5.32
27.685163021087646,2.3,0.52,0.32,2.37
27.69414210319519,1.4,0.26,2.25,2.66
27.70419692993164,0.91,0.06,2.03,2.22
27.714247226715088,0.81,0.24,-0.77,1.14
27.724388122558594,0.55,0.25,-1.35,1.47
27.735759258270264,0.2,-0.09,-0.02,0.22
27.748291969299316,0.32,-0.03,0.34,0.46
27.754908084869385,0.19,0.07,0.43,0.47
27.764760971069336,0.02,0.21,-0.03,0.21
27.77483320236206,0.1,0.3,-0.59,0.66
27.786170959472656,0.53,0.22,-0.36,0.67
27.795042037963867,0.49,-0.03,-0.05,0.49
27.80518102645874,0.34,-0.01,-0.02,0.34
27.815279006958008,0.3,0.08,-0.14,0.34
27.82564926147461,0.28,0.08,-0.42,0.51
27.836908102035522,0.16,-0.01,-0.51,0.53
27.8455491065979,-0.08,-0.07,-0.37,0.38
27.855453968048096,-0.2,-0.08,-0.09,0.23
27.865488052368164,-0.38,-0.14,0.15,0.43
27.875612258911133,-0.39,-0.06,0.15,0.42
27.886988162994385,-0.25,0.05,-0.05,0.25
27.89584708213806,-0.2,0.0,-0.49,0.52
27.9058940410614,-0.22,-0.11,-0.5,0.55
27.915964126586914,-0.14,-0.18,-0.42,0.47
27.92618417739868,-0.08,-0.21,-0.1,0.24
27.93747305870056,-0.12,0.13,0.1,0.2
27.94629406929016,-0.2,0.25,0.31,0.44
27.963128089904785,-0.15,0.26,0.03,0.3
27.966390132904053,-0.08,0.2,-0.19,0.28
27.97649312019348,-0.14,0.13,-0.19,0.26
27.98767900466919,-0.25,0.1,-0.19,0.32
27.9966721534729,-0.42,0.02,-0.1,0.43
28.007026195526123,-0.66,-0.11,0.16,0.68
28.016801118850708,-0.76,-0.17,0.13,0.78
28.026933193206787,-0.71,0.07,-0.07,0.71
28.03929615020752,-0.52,0.19,-0.16,0.57
28.04831314086914,-0.45,0.21,-0.2,0.53
28.057082176208496,-0.58,0.22,-0.19,0.64
28.067299127578735,-0.59,0.28,-0.35,0.74
28.07731604576111,-0.66,0.32,-0.36,0.81
28.088624000549316,-0.79,0.41,-0.35,0.95
28.097466945648193,-0.81,0.54,-0.22,0.99
28.10736608505249,-0.63,0.72,-0.11,0.96
28.117499113082886,-0.87,0.68,-0.09,1.1
28.12785291671753,-1.23,0.85,0.12,1.49
28.147357940673828,-1.45,0.98,0.12,1.75
28.14918804168701,-1.55,1.24,-0.13,1.98
28.157839059829712,-1.64,1.54,-0.08,2.25
28.16790008544922,-1.8,1.74,0.05,2.5
28.178208112716675,-1.99,1.82,0.38,2.72
28.189452171325684,-2.04,1.93,0.47,2.84
28.198184967041016,-1.98,2.31,0.08,3.04
28.20830726623535,-1.89,2.69,-0.1,3.28
28.218271255493164,-1.98,3.06,0.14,3.64
28.228541135787964,-2.0,3.45,0.75,4.05
28.248502254486084,-2.07,3.61,1.05,4.29
28.250519037246704,-2.09,3.98,0.79,4.56
28.258563995361328,-2.32,4.6,0.58,5.18
28.2687771320343,-2.93,5.56,-0.02,6.28
28.278815269470215,-4.03,6.05,0.98,7.33
28.290648937225342,-5.35,5.72,0.25,7.83
28.299086093902588,-6.25,5.38,-0.01,8.24
28.309091091156006,-6.22,5.17,-0.47,8.1
28.319169998168945,-4.98,5.77,-1.9,7.85
28.32930326461792,-3.68,6.59,-2.76,8.03
28.348791122436523,-3.18,5.04,-1.53,6.15
28.350789070129395,-2.42,4.28,-2.44,5.48
28.359548091888428,-1.63,4.71,-2.75,5.69
28.36960220336914,-2.08,3.42,-1.57,4.29
28.379639148712158,-3.56,1.29,-2.02,4.29
28.3912570476532,-7.13,-1.46,2.4,7.66
28.39979910850525,-9.83,-0.52,3.53,10.45
28.409950256347656,-11.31,-0.67,0.92,11.36
28.420143127441406,-12.53,-2.38,0.28,12.75
28.430228233337402,-13.48,-2.96,1.91,13.93
28.448373079299927,-13.29,-2.03,2.38,13.65
28.45038914680481,-12.22,-0.97,1.73,12.37
28.46033811569214,-10.64,-0.68,1.36,10.74
28.47035312652588,-8.49,-0.63,1.54,8.65
28.480544090270996,-6.75,-0.55,1.86,7.02
28.49176025390625,-5.41,-0.25,1.93,5.74
28.500757217407227,-4.59,0.01,1.82,4.93
28.51077914237976,-4.35,0.25,1.63,4.65
28.520815134048462,-4.51,0.37,1.53,4.77
28.530988216400146,-4.69,0.49,1.44,4.93
28.548168182373047,-4.55,0.72,1.27,4.77
28.55108118057251,-3.97,1.1,1.04,4.24
28.56112504005432,-3.1,1.55,0.79,3.55
28.571250915527344,-2.21,1.92,0.61,2.99
28.581278085708618,-1.35,2.25,0.41,2.65
28.592520236968994,-0.66,2.56,0.14,2.64
28.601534128189087,-0.22,2.76,0.13,2.77
28.61151695251465,-0.05,2.79,0.21,2.79
28.62156915664673,0.02,2.83,0.11,2.83
28.631800174713135,0.18,3.03,-0.09,3.03
28.64889407157898,0.41,3.29,-0.35,3.33
28.651913166046143,0.71,3.51,-0.64,3.63
28.66199493408203,1.06,3.73,-0.82,3.96
28.671958923339844,1.49,3.87,-0.92,4.24
28.682050228118896,2.07,4.11,-0.96,4.7
28.693395137786865,2.65,4.31,-1.11,5.17
28.702291011810303,3.18,4.48,-1.26,5.63
28.712395191192627,3.7,4.68,-1.35,6.11
28.722392082214355,4.18,4.77,-1.39,6.49
28.732656002044678,4.58,4.63,-1.55,6.69
28.74838924407959,5.13,4.45,-1.67,6.99
28.75271511077881,5.77,4.11,-1.7,7.28
28.762670040130615,6.41,3.53,-2.06,7.6
28.772751092910767,7.1,2.85,-2.15,7.94
28.782884120941162,7.62,1.97,-2.07,8.13
28.794147968292236,8.08,1.21,-2.14,8.44
28.80310821533203,8.81,0.77,-2.22,9.11
28.813207149505615,9.91,0.49,-2.17,10.15
28.823702096939087,10.96,0.03,-2.14,11.16
28.83488702774048,11.85,-0.35,-2.19,12.05
28.848412036895752,12.63,-0.43,-2.15,12.81
28.85352611541748,12.82,-0.73,-1.9,12.98
28.863569259643555,11.65,-1.07,-1.24,11.76
28.873842239379883,9.85,-0.88,-1.02,9.94
28.8838210105896,8.31,-0.52,-1.23,8.41
28.895081043243408,7.01,-0.48,-0.96,7.09
28.903850078582764,6.12,1.12,-0.63,6.25
28.914175987243652,4.93,2.08,-1.6,5.58
28.923983097076416,3.05,-1.62,2.04,4.01
28.935572147369385,-2.13,12.31,-3.91,13.09
28.947925090789795,-11.23,20.31,4.68,23.67
28.954340934753418,-1.18,-12.07,3.1,12.51
28.964341163635254,-1.89,-10.49,-4.6,11.6
28.974456071853638,-6.07,2.83,1.68,6.9
28.98453712463379,-1.12,-0.95,2.59,2.97
28.996103048324585,5.33,-3.12,2.41,6.62
29.004732131958008,7.01,1.62,1.94,7.45
29.014842987060547,8.97,4.48,0.63,10.04
29.02503204345703,11.37,4.7,-0.71,12.32
29.03632926940918,11.26,3.2,-0.52,11.71
29.048351049423218,7.57,0.67,-0.43,7.61
29.055147171020508,4.32,0.7,-2.04,4.82
29.06520915031433,1.58,1.21,-1.44,2.45
29.075382232666016,-0.5,0.15,-1.38,1.47
29.08538818359375,-0.62,-0.33,-1.55,1.7
29.09674906730652,0.56,0.29,-0.71,0.94
29.10556697845459,0.76,0.32,-1.45,1.66
29.11576223373413,0.87,0.04,-0.8,1.18
29.12564992904663,0.69,0.23,-0.29,0.78
29.136943101882935,0.38,0.14,0.63,0.74
29.147977113723755,0.49,0.19,0.56,0.76
29.155960083007812,0.93,0.35,0.12,1.0
29.165998935699463,0.92,0.22,0.06,0.94
29.176289081573486,0.97,0.13,-0.22,1.0
29.186171054840088,0.99,0.18,-0.7,1.22
29.197591066360474,0.75,0.04,-0.62,0.97
29.20681095123291,0.35,-0.09,-0.45,0.57
29.216490268707275,-0.09,-0.05,0.01,0.1
29.226609230041504,-0.39,-0.06,0.33,0.51
29.236627101898193,-0.46,-0.08,0.27,0.53
29.24807119369507,-0.43,-0.06,0.2,0.47
29.257216930389404,-0.37,-0.02,0.05,0.37
29.266801118850708,-0.26,-0.08,-0.22,0.34
29.276927947998047,-0.2,-0.14,-0.44,0.5
29.287169933319092,-0.19,-0.12,-0.37,0.43
29.29841899871826,-0.18,-0.18,-0.22,0.33
29.30715322494507,-0.22,-0.45,0.0,0.5
29.31734800338745,-0.09,0.03,-0.09,0.13
29.32735013961792,-0.04,0.26,-0.18,0.31
29.337481021881104,-0.16,0.11,-0.12,0.22
29.349363088607788,-0.37,-0.09,0.1,0.39
29.357486248016357,-0.26,-0.08,-0.04,0.27
29.367708206176758,0.17,0.17,-0.09,0.25
29.377836227416992,0.19,0.24,0.01,0.3
29.387810230255127,0.1,0.24,-0.1,0.27
29.399266242980957,0.03,0.18,-0.05,0.18
29.407817125320435,-0.2,0.13,0.01,0.23
29.418137073516846,-0.32,0.14,-0.11,0.36
29.428197145462036,-0.41,0.21,-0.04,0.46
29.438419103622437,-0.65,0.23,0.28,0.74
29.450511932373047,-0.8,0.28,0.1,0.85
29.458383083343506,-0.88,0.26,-0.38,0.99
29.468435049057007,-0.96,0.14,-0.59,1.13
29.478668212890625,-1.17,0.11,-0.38,1.23
29.488662242889404,-1.36,0.07,0.0,1.36
29.499998092651367,-1.47,-0.04,0.05,1.47
29.508878231048584,-1.17,0.38,-0.28,1.26
29.518912076950073,-0.8,0.76,-0.24,1.12
29.52895498275757,-0.48,0.77,-0.21,0.93
29.53911805152893,-0.36,0.72,-0.38,0.89
29.55031108856201,-0.34,1.0,-0.73,1.28
29.55932903289795,-0.14,1.36,-0.95,1.66
29.56932306289673,-0.42,1.47,-0.62,1.64
29.579447269439697,-0.84,2.06,-0.29,2.24
29.589520931243896,-1.4,1.65,1.05,2.4
29.60080313682556,-1.08,2.17,-0.25,2.43
29.60965394973755,-0.83,2.56,-0.29,2.7
29.61976408958435,-0.94,2.81,0.12,2.96
29.631103992462158,-1.34,2.95,-0.39,3.26
29.646740913391113,-1.83,3.17,-0.19,3.66
29.65102505683899,-2.28,3.79,-0.16,4.42
29.6600661277771,-2.92,4.66,-0.34,5.5
29.670067071914673,-3.8,6.03,0.25,7.13
29.68021011352539,-5.02,6.83,0.85,8.51
29.690468072891235,-6.16,7.28,0.81,9.57
29.701648235321045,-7.35,7.21,0.94,10.33
29.710467100143433,-8.49,6.07,0.83,10.46
29.7205171585083,-8.27,5.23,0.25,9.78
29.731743097305298,-6.93,4.21,-0.57,8.12
29.74677610397339,-5.59,3.3,-2.4,6.92
29.751784086227417,-3.96,4.21,-3.37,6.69
29.76087212562561,-2.04,5.1,-2.88,6.2
29.77093505859375,-0.87,5.04,-2.17,5.55
29.781050205230713,-1.61,2.78,-2.2,3.89
29.791100025177002,-2.66,0.2,-0.24,2.67
29.802786111831665,-3.17,-2.45,-2.03,4.49
29.81131911277771,-3.03,-0.02,-1.5,3.38
29.821315050125122,-5.75,1.81,0.66,6.06
29.832730054855347,-9.98,-1.49,0.32,10.09
29.847366094589233,-12.34,-3.13,2.12,12.9
29.852747917175293,-12.84,-3.6,1.39,13.4
29.861702919006348,-12.31,-3.15,0.5,12.71
29.871816158294678,-11.56,-2.41,0.97,11.84
29.881890058517456,-10.44,-2.01,1.17,10.69
29.89198112487793,-8.59,-1.77,0.92,8.81
29.90343403816223,-6.92,-1.35,0.66,7.08
29.912195205688477,-5.52,-0.76,0.65,5.6
29.922157049179077,-4.62,-0.3,0.81,4.7
29.933821201324463,-4.33,0.05,0.88,4.41
29.947752952575684,-4.34,0.35,0.8,4.42
29.953810214996338,-4.31,0.78,0.75,4.44
29.962528228759766,-4.09,1.33,0.63,4.34
29.972572088241577,-3.66,1.73,0.35,4.06
29.982726097106934,-3.12,1.89,0.16,3.65
29.992829084396362,-2.45,1.98,0.04,3.15
30.004230976104736,-1.68,2.16,-0.16,2.74
30.01324224472046,-0.97,2.46,-0.43,2.67
30.023457050323486,-0.49,2.68,-0.59,2.78
30.03309917449951,-0.3,2.7,-0.65,2.79
30.047529220581055,-0.28,2.65,-0.73,2.76
30.054516077041626,-0.32,2.61,-0.68,2.71
30.06344223022461,-0.27,2.67,-0.71,2.77
30.073806047439575,-0.07,2.8,-0.89,2.93
30.083505153656006,0.28,2.94,-1.1,3.15
30.09366512298584,0.74,3.09,-1.18,3.38
30.105075120925903,1.29,3.35,-1.31,3.82
30.113784074783325,1.8,3.69,-1.43,4.34
30.12406301498413,2.23,3.99,-1.53,4.82
30.133878231048584,2.55,4.18,-1.48,5.11
30.147450923919678,2.95,4.44,-1.43,5.51
30.155433177947998,3.49,4.83,-1.61,6.17
30.16421103477478,3.95,4.91,-1.83,6.56
30.174143075942993,4.31,4.44,-1.94,6.48
30.184332132339478,4.63,3.64,-2.22,6.29
30.19446897506714,5.02,2.92,-2.15,6.19
30.20585298538208,5.53,2.37,-2.04,6.35
30.21459412574768,6.11,1.9,-1.99,6.7
30.224626064300537,6.75,1.51,-2.07,7.21
30.23469305038452,7.6,1.25,-2.01,7.96
30.24772310256958,8.37,0.95,-1.66,8.58
30.25603413581848,9.27,0.83,-1.46,9.42
30.265220165252686,10.27,0.76,-1.24,10.37
30.275049209594727,11.03,0.52,-1.16,11.1
30.285125255584717,11.24,0.16,-1.38,11.32
30.295297145843506,11.34,-0.41,-1.13,11.4
30.307202100753784,10.8,-1.1,-0.79,10.88
30.315487146377563,9.45,-1.12,-0.49,9.52
30.32559299468994,8.17,-0.75,-0.23,8.2
30.335608959197998,7.14,-0.41,-0.01,7.15
30.34714412689209,6.63,0.05,0.12,6.63
30.357272148132324,6.55,2.92,-0.23,7.17
