time,ax,ay,az,atotal
0.0036962032318115234,-0.29,-0.6,1.13,1.31
0.013358116149902344,-0.2,-0.15,0.71,0.75
0.02253413200378418,-0.08,0.04,-0.19,0.21
0.03217601776123047,-0.13,0.02,-0.55,0.56
0.0422520637512207,-0.34,-0.09,-0.38,0.51
0.05241727828979492,-0.5,-0.32,-0.11,0.6
0.06348419189453125,-0.62,-0.61,0.07,0.87
0.0725851058959961,-0.83,-0.55,0.28,1.03
0.08252310752868652,-0.6,-0.47,0.19,0.78
0.09281730651855469,0.06,-0.44,-0.21,0.49
0.10377717018127441,0.74,-0.03,-0.82,1.1
0.1141061782836914,1.02,0.51,-1.2,1.65
0.1229240894317627,0.95,0.64,-1.4,1.8
0.1330881118774414,0.69,0.34,-1.41,1.6
0.14307308197021484,0.43,0.03,-1.22,1.29
0.15335702896118164,0.22,-0.12,-0.96,0.99
0.16449403762817383,0.11,-0.08,-0.36,0.38
0.17371916770935059,-0.13,-0.13,0.16,0.24
0.1839001178741455,-0.18,-0.21,0.05,0.28
0.19369816780090332,0.04,-0.21,-0.58,0.61
0.20599913597106934,0.23,-0.18,-0.93,0.97
0.21491217613220215,0.21,-0.11,-1.03,1.05
0.22385406494140625,0.1,0.01,-1.28,1.28
0.2341611385345459,0.03,0.13,-1.48,1.48
0.24399328231811523,0.09,0.25,-1.5,1.52
0.25422215461730957,-0.02,0.39,-1.19,1.25
0.2655220031738281,-0.45,0.12,-1.09,1.18
0.2743492126464844,-0.98,-0.51,-1.42,1.79
0.2842521667480469,-1.24,-0.95,-1.39,2.09
0.29475831985473633,-0.8,-1.04,-0.91,1.59
0.30646228790283203,-0.19,-1.15,-0.53,1.28
0.31592416763305664,0.15,-1.37,0.0,1.37
0.3245711326599121,0.42,-1.41,0.03,1.47
0.33451318740844727,0.49,-1.13,-0.83,1.48
0.34487199783325195,0.69,-0.55,-1.76,1.96
0.3549380302429199,1.58,0.07,-1.43,2.13
0.36615419387817383,2.26,0.5,-0.83,2.45
0.3751993179321289,1.76,0.53,-0.97,2.07
0.38509511947631836,0.47,-0.1,-1.02,1.12
0.3952651023864746,0.16,-0.86,-0.36,0.94
0.4077751636505127,0.24,-1.42,0.14,1.44
0.4170842170715332,-0.03,-2.0,0.77,2.14
0.42546510696411133,-0.02,-2.17,1.38,2.57
0.4356212615966797,0.57,-1.89,1.1,2.25
0.4455571174621582,1.58,-1.5,0.4,2.21
0.45562028884887695,1.9,-1.16,-0.2,2.23
0.46732020378112793,1.14,-0.91,-0.01,1.45
0.4759249687194824,0.81,-0.56,-0.1,0.98
0.4860062599182129,0.9,-0.02,-0.5,1.02
0.49610328674316406,0.54,0.3,-0.33,0.7
0.5062522888183594,-0.78,0.09,1.18,1.41
0.524055004119873,-1.91,-0.21,2.16,2.89
0.526313304901123,-1.28,0.23,2.2,2.55
0.5365781784057617,-0.08,0.72,2.32,2.43
0.5464262962341309,0.45,0.75,1.98,2.16
0.5565390586853027,0.05,0.45,1.21,1.29
0.5680811405181885,-0.27,0.19,0.59,0.67
0.5767092704772949,-0.68,0.16,0.21,0.72
0.5869293212890625,-1.95,0.2,0.61,2.05
0.5979800224304199,-2.21,0.57,0.5,2.33
0.6067800521850586,-2.19,0.8,0.2,2.34
0.6187121868133545,-2.53,0.47,0.03,2.57
0.6271400451660156,-2.23,0.56,0.3,2.31
0.6372032165527344,-1.51,1.12,0.56,1.96
0.6471521854400635,-1.04,1.32,0.35,1.71
0.657649040222168,-0.61,1.58,0.42,1.74
0.6688079833984375,-0.99,1.38,0.2,1.71
0.6775221824645996,-1.13,0.93,-0.05,1.46
0.6876060962677002,-0.38,0.98,-0.22,1.07
0.6987521648406982,-0.52,0.87,-0.62,1.18
0.7076971530914307,-1.41,0.76,-0.48,1.67
0.7188510894775391,-1.85,0.86,-0.29,2.06
0.7278432846069336,-1.75,1.05,-0.69,2.15
0.7381081581115723,-1.41,1.8,-0.69,2.38
0.7480461597442627,-1.71,1.72,-0.41,2.45
0.7582201957702637,-1.63,1.06,-0.19,1.95
0.7692832946777344,-0.99,0.93,-0.28,1.38
0.7782812118530273,0.02,1.16,-0.55,1.28
0.7883772850036621,1.81,1.24,-1.39,2.59
0.7994899749755859,1.46,1.0,-2.31,2.9
0.8085181713104248,0.55,0.69,-1.87,2.06
0.8198132514953613,-1.11,0.33,0.01,1.15
0.8286333084106445,-1.09,0.36,1.47,1.86
0.8387291431427002,0.52,0.36,-0.7,0.94
0.8490121364593506,2.08,1.05,-3.26,4.0
0.8590340614318848,2.18,1.49,-2.17,3.41
0.8705639839172363,0.68,0.61,-0.62,1.1
0.8792142868041992,0.18,0.32,0.38,0.52
0.8892261981964111,0.36,0.7,0.58,0.97
0.9067492485046387,0.14,0.97,0.01,0.98
0.9093570709228516,-0.15,1.16,-0.15,1.17
0.9208381175994873,-1.6,0.62,0.41,1.76
0.9294741153717041,-2.55,0.26,0.99,2.74
0.9396750926971436,-0.45,1.18,0.38,1.31
0.9496302604675293,-0.76,0.96,-1.06,1.61
0.9598202705383301,-0.23,1.1,-0.64,1.29
0.9710371494293213,2.95,2.37,-1.07,3.93
0.9799861907958984,5.86,3.55,-4.51,8.2
0.9900131225585938,2.97,1.95,-5.61,6.64
1.0061612129211426,1.54,1.14,-1.85,2.66
1.0101661682128906,0.91,1.09,0.94,1.7
1.021639108657837,0.66,1.18,1.32,1.88
1.0303802490234375,0.48,1.07,5.28,5.4
1.040459156036377,-0.75,-5.53,6.51,8.57
1.0509252548217773,3.77,-1.74,3.18,5.23
1.060676097869873,3.94,2.5,4.88,6.75
1.072031021118164,0.98,2.24,4.9,5.47
1.0808491706848145,-0.57,1.27,1.18,1.82
1.0907881259918213,0.72,0.94,-0.63,1.34
1.1066880226135254,1.42,1.03,-1.23,2.14
1.1109333038330078,-1.16,-0.03,-1.36,1.78
1.122422218322754,-0.9,-0.15,1.16,1.47
1.1311249732971191,-0.65,0.34,2.39,2.5
1.1411900520324707,-0.6,0.49,-0.55,0.95
1.1511549949645996,0.04,1.0,-3.0,3.16
1.1615071296691895,-1.37,-1.07,2.06,2.69
1.1726961135864258,-3.45,-4.41,-1.97,5.93
1.1815862655639648,0.86,1.91,-7.82,8.09
1.1915950775146484,0.52,-0.36,8.61,8.63
1.2066521644592285,-1.35,0.05,4.04,4.25
1.2117421627044678,-1.54,-0.6,1.02,1.94
1.22330904006958,-1.18,-0.91,2.05,2.53
1.2320489883422852,-1.61,-0.68,1.93,2.6
1.2420260906219482,-1.95,-0.39,0.31,2.01
1.2522361278533936,-1.88,-0.47,-1.48,2.43
1.2622551918029785,-1.55,-0.84,-2.02,2.68
1.27363920211792,-1.05,-1.31,-1.51,2.25
1.282485008239746,-0.83,-1.92,-0.77,2.22
1.2924232482910156,-0.71,-2.06,-0.47,2.22
1.3064332008361816,-0.42,-1.78,-0.41,1.87
1.3125052452087402,-0.21,-1.13,-0.65,1.32
1.3240091800689697,-0.55,-0.98,-0.88,1.42
1.3327291011810303,-0.65,-1.31,-1.15,1.86
1.3428940773010254,-0.15,-1.58,-0.28,1.61
1.353194236755371,0.56,-1.34,-1.02,1.77
1.3631041049957275,0.96,-1.25,-1.27,2.02
1.3744370937347412,1.42,-1.28,-1.5,2.42
1.3832039833068848,2.29,-1.36,-2.58,3.7
1.394294261932373,2.67,-0.64,-2.28,3.56
1.406548023223877,2.18,-0.35,-1.19,2.5
1.4133861064910889,1.39,-1.44,-0.79,2.15
1.4248132705688477,1.27,-1.2,-0.31,1.77
1.4339532852172852,1.29,-0.58,-0.22,1.43
1.4436371326446533,1.14,-0.53,-0.78,1.47
1.4538393020629883,0.86,-0.56,-1.04,1.46
1.4639720916748047,0.87,-0.84,-1.58,1.98
1.4752941131591797,1.5,-0.03,-1.47,2.1
1.4844281673431396,1.4,-0.37,-1.88,2.37
1.495652198791504,0.88,0.66,-1.65,1.98
1.5068840980529785,0.42,3.63,-0.26,3.66
1.5142250061035156,-1.41,1.76,2.33,3.24
1.5255701541900635,-3.0,-0.58,6.02,6.75
1.5343742370605469,-3.19,-0.44,5.61,6.46
1.5444769859313965,-2.07,1.03,1.89,2.98
1.554596185684204,-0.45,1.84,-2.26,2.94
1.5647382736206055,0.38,1.41,-3.04,3.37
1.5761022567749023,0.91,-0.17,-1.11,1.44
1.5847902297973633,1.21,1.4,-0.01,1.85
1.5959320068359375,-0.68,2.01,-0.23,2.13
1.60709810256958,-0.65,-0.4,0.66,1.0
1.6149871349334717,0.89,-0.29,0.45,1.03
1.6268231868743896,0.72,0.66,-1.12,1.48
1.6351451873779297,-0.09,0.86,-1.5,1.73
1.6453032493591309,-0.45,0.19,0.31,0.57
1.6554441452026367,-0.26,-0.35,1.58,1.63
1.665511131286621,0.36,-0.08,0.76,0.84
1.6768901348114014,0.56,0.3,-0.41,0.75
1.6857752799987793,0.21,-0.09,-0.92,0.94
1.6968193054199219,-0.02,-0.44,-0.76,0.87
1.7065131664276123,-0.55,-0.57,-0.39,0.88
1.7159032821655273,-1.0,-0.75,0.14,1.25
1.7272911071777344,-1.1,-1.17,0.88,1.83
1.736166000366211,-0.93,-1.51,1.07,2.07
1.7461919784545898,-0.34,-1.15,0.53,1.31
1.7562541961669922,0.17,-0.43,-0.08,0.46
1.7663393020629883,0.37,-0.05,-0.24,0.44
1.7777562141418457,0.34,-0.08,-0.33,0.48
1.7864432334899902,0.2,-0.15,-0.35,0.43
1.7964861392974854,0.08,-0.11,-0.24,0.27
1.8065571784973145,-0.02,0.19,-0.21,0.28
1.8164951801300049,0.31,0.69,-0.25,0.79
1.827949047088623,0.56,-0.42,-0.08,0.7
1.8369503021240234,0.23,-0.86,0.19,0.91
1.8470211029052734,0.04,0.21,-0.12,0.24
1.857206106185913,-0.36,-0.08,-0.23,0.43
1.8676300048828125,-0.75,-0.33,0.1,0.82
1.878514289855957,-0.65,0.27,0.37,0.79
1.8874711990356445,-0.69,0.06,0.15,0.7
1.897355079650879,-0.66,-0.54,0.05,0.85
1.9075679779052734,-0.19,0.09,-0.12,0.24
1.9177141189575195,0.11,0.6,-0.68,0.91
1.9288520812988281,0.28,0.11,-0.71,0.77
1.9377901554107666,0.4,-0.31,0.04,0.5
1.9478061199188232,0.25,-0.13,0.18,0.33
1.9578971862792969,0.09,0.09,-0.23,0.26
1.9679059982299805,0.13,0.25,-0.13,0.31
1.9793381690979004,0.16,0.31,-0.23,0.41
1.9882240295410156,0.39,0.49,-0.35,0.71
1.9982151985168457,1.17,0.79,0.27,1.43
2.008275032043457,1.0,1.45,-0.16,1.76
2.01815128326416,0.3,1.24,-1.22,1.76
2.029736042022705,-0.01,0.93,-0.01,0.93
2.038581132888794,-0.66,0.78,0.75,1.26
2.0486221313476562,-0.77,0.59,0.92,1.33
2.0587031841278076,-0.36,0.4,1.45,1.54
2.0688862800598145,0.06,0.41,1.28,1.34
2.080202102661133,0.44,0.43,0.65,0.89
2.089169979095459,0.56,0.2,0.11,0.6
2.098997116088867,0.35,-0.14,-0.15,0.4
2.109072208404541,-0.2,-0.83,-0.31,0.9
2.119206190109253,-0.88,-1.56,-0.43,1.84
2.130495071411133,-1.13,-1.83,-0.43,2.19
2.139296054840088,-1.02,-1.75,-0.27,2.04
2.149374008178711,-1.03,-2.39,-0.01,2.6
2.1595821380615234,-0.78,-3.02,0.22,3.12
2.169750213623047,-0.28,-2.53,-0.06,2.54
2.18096923828125,-0.25,-1.96,-0.52,2.04
2.1911182403564453,-0.45,-1.63,-0.8,1.87
2.199848175048828,-0.97,-1.53,-0.69,1.93
2.209846019744873,-1.45,-1.63,-0.49,2.23
2.2201011180877686,-1.62,-1.77,-0.27,2.41
2.2313151359558105,-1.49,-1.75,-0.1,2.3
2.2402682304382324,-1.14,-1.72,-0.12,2.06
2.250607967376709,-0.58,-1.75,-0.19,1.85
2.2603702545166016,-0.11,-1.67,-0.07,1.67
2.2705302238464355,0.15,-1.39,0.55,1.5
2.2818522453308105,0.09,-0.9,1.44,1.7
2.2918901443481445,-0.67,-0.27,0.82,1.09
2.3070051670074463,-0.61,0.27,-0.75,1.0
2.3107032775878906,0.41,0.67,-1.49,1.68
2.3208889961242676,1.33,0.65,-1.5,2.1
2.3323450088500977,1.96,0.31,-0.9,2.17
2.3410041332244873,2.14,-0.62,-0.35,2.25
2.3512001037597656,1.77,-1.9,0.02,2.59
2.361241102218628,1.1,-3.09,-0.21,3.28
2.3714141845703125,1.12,-3.76,-0.84,4.01
2.3826801776885986,2.26,-3.6,-1.12,4.39
2.392656087875366,4.34,-2.38,-1.86,5.28
2.4068241119384766,7.31,2.07,-2.56,8.01
2.411635160446167,5.82,5.12,-4.89,9.16
2.4219231605529785,-0.48,7.29,-2.93,7.87
2.433131217956543,-7.38,6.26,7.6,12.3
2.441802978515625,-9.61,4.01,4.76,11.44
2.4519143104553223,-8.14,1.75,-1.77,8.51
2.462092161178589,-4.13,-1.03,-1.55,4.52
2.4721412658691406,0.13,-0.71,0.89,1.14
2.4839181900024414,0.81,0.11,1.35,1.57
2.4935202598571777,-0.97,-0.34,0.23,1.05
2.506887197494507,-1.86,-0.79,-0.93,2.22
2.5123772621154785,-1.84,-0.88,-1.37,2.45
2.522505283355713,-0.65,0.56,-4.18,4.26
2.5342161655426025,0.61,-0.03,0.24,0.65
2.5426712036132812,1.04,0.62,1.31,1.78
2.55281400680542,2.13,1.45,0.86,2.71
2.5627622604370117,3.21,0.9,0.63,3.39
2.572949171066284,3.31,0.21,0.57,3.36
2.5845789909362793,1.98,0.0,-0.33,2.0
2.5930721759796143,0.53,-0.77,-0.56,1.08
2.6071043014526367,0.21,-0.32,-0.82,0.9
2.613084316253662,-0.04,-0.44,-0.25,0.5
2.6232752799987793,-0.62,-0.61,-0.11,0.87
2.6351511478424072,-0.42,0.42,-1.04,1.19
2.643522262573242,-0.08,-0.61,-0.55,0.82
2.653496265411377,0.16,-0.54,-0.46,0.72
2.6636011600494385,0.19,-0.33,-0.39,0.54
2.6736061573028564,-0.06,-0.14,-0.05,0.16
2.6854052543640137,-0.13,0.16,0.09,0.22
2.6937921047210693,-0.15,0.66,0.09,0.68
2.707930088043213,0.23,0.85,0.51,1.01
2.7139992713928223,0.73,0.21,0.35,0.83
2.7239561080932617,0.82,0.47,0.65,1.14
2.7354531288146973,0.87,-1.0,0.99,1.65
2.744187116622925,0.51,-0.95,0.42,1.15
2.754518985748291,0.33,-0.49,0.18,0.61
2.7643370628356934,0.34,-0.19,-0.16,0.42
2.774625301361084,-0.43,0.6,-0.61,0.95
2.785855293273926,-0.73,-0.05,-0.3,0.79
2.7950172424316406,-0.44,0.4,-0.95,1.12
2.808244228363037,-0.55,-0.32,-0.76,0.99
2.8147871494293213,-0.74,0.81,-0.37,1.15
2.824951171875,-0.57,-0.47,-0.39,0.83
2.8361551761627197,-0.26,0.55,-0.57,0.83
2.8450722694396973,-0.07,0.17,-0.7,0.72
2.855213165283203,0.05,1.05,-0.74,1.28
2.8651671409606934,-0.03,0.4,-0.58,0.7
2.8753371238708496,0.47,-0.09,0.1,0.48
2.886779308319092,0.71,-0.41,0.5,0.96
2.8955161571502686,1.08,-0.99,-0.03,1.46
2.9089512825012207,1.07,-1.06,-0.34,1.54
2.91560697555542,0.46,-1.23,-1.03,1.66
2.925755023956299,-0.11,-0.69,-1.32,1.49
2.9371180534362793,-0.27,-0.85,-1.22,1.51
2.9458611011505127,0.4,-0.82,-1.17,1.48
2.9559149742126465,0.01,0.28,-0.94,0.98
2.9664101600646973,-0.3,0.06,-0.39,0.49
2.976309299468994,-0.34,-0.64,-0.82,1.09
2.9887490272521973,-0.78,-0.31,-0.36,0.91
2.9962821006774902,-1.03,-0.31,0.14,1.08
3.0095441341400146,-1.41,-0.36,0.7,1.61
3.016453266143799,-1.45,-0.6,1.05,1.88
3.0264673233032227,-0.76,-0.53,0.58,1.09
3.0379841327667236,-0.41,-0.4,0.21,0.61
3.0465869903564453,-0.26,-0.34,0.14,0.45
3.0567781925201416,0.29,-0.58,0.87,1.08
3.0670652389526367,0.1,0.49,0.61,0.78
3.076918125152588,-1.14,3.48,-0.78,3.74
3.089444160461426,-1.13,2.66,0.29,2.9
3.097119092941284,-0.15,1.55,0.56,1.65
3.109840154647827,0.64,1.62,0.89,1.95
3.1174120903015137,1.32,0.66,0.34,1.51
3.127346992492676,1.5,0.67,-0.2,1.65
3.1385722160339355,0.83,0.5,-0.56,1.11
3.147456169128418,0.54,0.08,-0.73,0.91
3.157607078552246,0.36,0.28,-0.08,0.46
3.1676173210144043,0.08,0.57,0.6,0.83
3.1778101921081543,0.14,0.76,0.38,0.86
3.190235137939453,0.14,0.46,-0.06,0.48
3.197869300842285,0.21,0.31,-0.19,0.41
3.211419105529785,0.26,0.16,-0.01,0.3
3.2180280685424805,0.13,0.02,0.1,0.16
3.2281742095947266,-0.24,-0.07,0.11,0.27
3.239582061767578,-0.69,-0.08,0.41,0.8
3.2483062744140625,-0.24,0.26,0.44,0.56
3.258568286895752,-0.45,0.49,1.06,1.25
3.2683191299438477,0.04,0.88,1.23,1.51
3.278542995452881,0.39,0.63,-0.07,0.74
3.2910192012786865,-0.91,0.84,1.47,1.92
3.298739194869995,-1.74,0.39,0.09,1.78
3.31130313873291,0.2,-0.91,-0.11,0.93
3.3187360763549805,1.69,-1.69,1.74,2.95
3.3288750648498535,-0.48,-0.96,-1.97,2.24
3.340182304382324,-1.72,-1.99,-2.77,3.81
3.3492071628570557,-1.35,-1.55,0.66,2.15
3.359166145324707,0.84,0.73,-1.46,1.83
3.3691930770874023,0.85,0.26,-0.58,1.06
3.3793821334838867,-1.98,-0.75,-0.37,2.14
3.3907523155212402,-1.25,-0.57,0.57,1.48
3.399557113647461,0.58,0.33,0.02,0.66
3.4124832153320312,1.24,0.9,-0.55,1.62
3.419729232788086,1.26,0.66,-0.49,1.5
3.4296681880950928,0.93,0.45,-0.01,1.03
3.441066265106201,-0.22,-0.19,0.42,0.51
3.449871063232422,-0.8,-0.16,0.48,0.94
3.45992112159729,-0.6,-0.19,0.53,0.82
3.47019100189209,-0.79,-0.56,-0.18,0.98
3.4802513122558594,-0.65,-0.12,-0.3,0.72
3.491530179977417,-0.33,-0.06,-0.24,0.41
3.5067920684814453,0.07,-0.13,-0.07,0.16
3.5130372047424316,0.39,0.09,0.07,0.4
3.5205271244049072,0.6,0.44,-0.1,0.75
3.530567169189453,0.84,0.23,-0.83,1.2
3.541917085647583,0.82,0.23,-0.11,0.85
3.55088210105896,0.17,0.2,0.27,0.37
3.560911178588867,-0.46,-0.08,0.09,0.47
3.570927143096924,-0.59,-0.27,-0.13,0.66
3.581048011779785,-0.09,0.23,0.08,0.25
3.5923101902008057,-0.09,-0.38,-1.19,1.25
3.6072440147399902,-0.14,0.09,-0.41,0.44
3.6135430335998535,-0.13,0.11,-0.29,0.33
3.621453285217285,-0.01,0.07,-0.19,0.2
3.63145112991333,0.08,0.03,-0.23,0.24
3.642954111099243,0.41,0.32,0.21,0.56
3.651602268218994,0.23,-0.21,-0.7,0.76
3.661774158477783,-0.11,0.0,-0.26,0.28
3.6717519760131836,-0.24,0.07,0.13,0.28
3.681960105895996,-0.3,-0.15,-0.22,0.4
3.6930880546569824,-0.11,0.16,0.16,0.25
3.707512140274048,-0.28,-0.29,-0.53,0.66
3.713693141937256,-0.4,-0.32,-0.29,0.58
3.722156047821045,-0.16,-0.08,0.1,0.2
3.7321581840515137,-0.01,0.05,0.03,0.05
3.7436022758483887,-0.13,0.0,-0.12,0.17
3.75246524810791,-0.44,-0.21,-0.28,0.56
3.7624731063842773,-0.49,-0.06,-0.08,0.5
3.772578239440918,-0.4,-0.13,-0.19,0.46
3.7907941341400146,-0.37,-0.21,-0.16,0.45
3.7949111461639404,-0.2,-0.06,0.0,0.2
3.802807092666626,0.05,0.1,0.15,0.18
3.8128931522369385,0.44,0.46,0.55,0.84
3.8229970932006836,0.32,-0.1,-0.46,0.56
3.833101272583008,0.02,-0.26,-0.25,0.36
3.844297170639038,0.19,0.21,0.29,0.4
3.853238105773926,0.46,0.12,-0.09,0.48
3.8631951808929443,0.19,0.03,-0.26,0.32
3.8733701705932617,0.17,0.11,0.25,0.32
3.891533136367798,0.5,0.32,0.64,0.87
3.895695209503174,0.21,-0.21,-0.23,0.37
3.903682231903076,-0.21,-0.08,0.45,0.5
3.9137041568756104,-0.11,-0.08,0.59,0.6
3.923990249633789,0.21,-0.06,0.51,0.55
3.9341859817504883,0.49,0.41,0.86,1.07
3.945326089859009,0.25,-0.36,-0.44,0.62
3.9541451930999756,0.01,0.08,0.07,0.1
3.964121103286743,-0.13,0.36,0.07,0.38
3.9743242263793945,0.1,0.09,-0.41,0.43
3.9857540130615234,0.04,-0.58,-1.12,1.26
3.995889186859131,0.04,0.04,-0.26,0.26
4.0074992179870605,0.42,0.31,-0.18,0.55
4.014395236968994,0.69,0.42,-0.02,0.8
4.0246641635894775,0.02,-0.28,-1.02,1.05
4.034548282623291,-0.62,-0.03,-0.13,0.63
4.046051979064941,-0.56,0.14,0.73,0.93
4.05484414100647,-0.54,-0.66,0.09,0.85
4.0649940967559814,-0.19,-0.18,0.71,0.75
4.075042247772217,0.34,0.24,0.62,0.74
4.086193084716797,0.6,-0.01,-0.44,0.74
4.096564292907715,0.51,-0.05,-0.49,0.7
4.108009099960327,0.26,0.62,0.29,0.73
4.1151123046875,-0.18,0.04,-0.46,0.49
4.125410079956055,-0.74,-0.49,-0.95,1.3
4.135641098022461,-0.86,-0.35,-0.42,1.01
4.14695930480957,-0.41,-0.15,0.16,0.46
4.155611991882324,-0.25,-0.15,0.1,0.3
4.165785312652588,0.41,0.4,0.32,0.65
4.175923109054565,0.39,-0.3,-1.35,1.43
4.190982103347778,0.18,0.15,-1.05,1.07
4.197322130203247,0.39,0.37,-0.85,1.0
4.206128120422363,0.22,-0.31,-1.54,1.58
4.216183185577393,-0.41,-0.16,-0.57,0.72
4.226241111755371,-0.81,0.0,0.57,0.99
4.236392021179199,-0.82,-0.17,0.37,0.91
4.247781276702881,-0.43,0.09,0.53,0.68
4.256564140319824,-0.51,-0.5,-0.57,0.91
4.266718149185181,-0.6,-0.44,-0.09,0.74
4.27655816078186,-0.16,-0.21,0.16,0.3
4.2868332862854,0.18,0.04,-0.25,0.31
4.300603151321411,0.16,0.17,-0.61,0.65
4.306916236877441,0.08,0.18,-0.57,0.6
4.316944122314453,-0.03,0.13,-0.41,0.43
4.326948165893555,-0.16,0.01,-0.31,0.34
4.337169170379639,-0.3,-0.06,-0.3,0.42
4.348542213439941,-0.31,-0.11,-0.26,0.41
4.357217311859131,-0.2,-0.16,-0.2,0.32
4.367494106292725,0.09,-0.04,-0.21,0.23
4.377575159072876,0.42,-0.07,0.04,0.42
4.387637138366699,0.63,-0.14,0.12,0.65
4.400300979614258,0.24,0.13,-0.13,0.3
4.407618999481201,-0.37,-0.11,-0.53,0.65
4.417708158493042,-0.51,-0.33,-0.71,0.93
4.427991151809692,-0.31,-0.21,-0.08,0.38
4.437835216522217,-0.35,-0.18,0.59,0.7
4.449300289154053,-0.55,-0.25,0.62,0.86
4.4581522941589355,-0.55,-0.35,0.37,0.74
4.468156099319458,-0.28,-0.22,0.17,0.39
4.478257179260254,-0.14,-0.07,0.05,0.16
4.488423109054565,-0.45,-0.12,0.03,0.46
4.500842094421387,-0.87,-0.26,-0.08,0.91
4.508504152297974,-0.99,-0.44,-0.14,1.09
4.518722057342529,-0.87,-0.32,0.11,0.93
4.5287041664123535,-0.62,-0.18,0.32,0.72
4.538724184036255,-0.39,-0.24,-0.14,0.47
4.550024032592773,-0.27,-0.18,-0.21,0.38
4.55924916267395,-0.3,-0.19,0.29,0.45
4.568920135498047,-0.48,-0.29,0.2,0.59
4.580286026000977,-0.64,-0.24,-0.02,0.68
4.589123249053955,-0.67,-0.13,0.09,0.68
4.600312232971191,-0.56,-0.08,-0.06,0.56
4.609522104263306,-0.31,-0.04,-0.41,0.51
4.6195151805877686,0.01,-0.05,-0.48,0.48
4.629530191421509,0.15,0.0,-0.32,0.35
4.639649152755737,0.1,-0.01,-0.31,0.32
4.651086091995239,0.07,-0.06,-0.52,0.52
4.659663200378418,0.1,-0.1,-0.77,0.78
4.669997215270996,0.22,-0.12,-0.68,0.72
4.681056976318359,0.2,-0.03,-0.55,0.58
4.690131187438965,0.15,0.19,-0.4,0.46
4.701082229614258,0.21,0.34,-0.22,0.45
4.709952116012573,0.23,0.35,-0.17,0.45
4.720304012298584,0.21,0.2,-0.08,0.3
4.7303242683410645,0.25,0.01,0.0,0.25
4.740490198135376,0.47,0.07,-0.19,0.51
4.7518792152404785,0.68,0.25,-0.26,0.76
4.76053524017334,0.63,0.31,-0.16,0.72
4.77066707611084,0.29,0.25,-0.08,0.39
4.781654119491577,-0.1,0.08,-0.09,0.15
4.790969133377075,-0.31,-0.1,-0.08,0.33
4.802127122879028,-0.22,0.03,-0.18,0.28
4.810953140258789,0.12,0.17,0.0,0.2
4.821173191070557,0.51,0.23,0.1,0.56
4.831160068511963,0.8,0.44,-0.18,0.93
4.8411781787872314,0.89,0.53,-0.2,1.05
4.8525331020355225,0.58,0.43,-0.3,0.78
4.861461162567139,0.07,0.22,-0.44,0.49
4.871504306793213,-0.27,-0.07,-0.13,0.3
4.88253927230835,-0.36,-0.3,0.04,0.47
4.891707181930542,-0.39,-0.41,0.08,0.57
4.902928113937378,-0.46,-0.33,0.33,0.65
4.911853313446045,-0.61,-0.12,0.31,0.69
4.9219090938568115,-0.78,0.01,0.0,0.78
4.9320292472839355,-0.58,0.06,-0.17,0.6
4.942378044128418,0.09,0.37,-0.36,0.52
4.953474044799805,1.08,0.82,-0.33,1.39
4.9622602462768555,2.18,1.07,-0.35,2.45
4.972558975219727,3.07,1.24,-0.17,3.31
4.982462167739868,3.62,1.45,-0.02,3.89
4.9991631507873535,3.45,1.58,0.41,3.81
5.003551006317139,2.13,1.14,0.49,2.46
5.012677192687988,0.52,0.71,0.99,1.32
5.022716045379639,-0.39,0.23,2.16,2.2
5.032851219177246,-0.47,0.03,1.85,1.9
5.042893171310425,0.08,0.21,1.27,1.28
5.05429220199585,1.17,0.48,0.77,1.48
5.063074111938477,2.46,1.36,1.48,3.17
5.073218107223511,3.59,1.17,2.08,4.31
5.083278179168701,4.37,0.92,3.03,5.39
5.09990119934082,4.28,0.54,3.3,5.43
5.104494094848633,4.01,0.36,3.24,5.16
5.11338210105896,3.95,0.38,2.91,4.92
5.123473167419434,4.18,0.27,2.44,4.84
5.133718013763428,4.09,0.22,2.3,4.69
5.143717288970947,3.59,-0.07,2.12,4.16
5.15517520904541,2.97,-0.28,1.87,3.52
5.164021968841553,2.42,-0.37,1.74,3.0
5.174009323120117,2.11,-0.45,1.66,2.72
5.184054136276245,2.1,-0.33,1.67,2.7
5.199705123901367,2.54,-0.28,1.3,2.86
5.205482006072998,2.88,-0.24,0.7,2.97
5.214309215545654,2.65,-0.34,0.56,2.72
5.224287033081055,1.87,-0.78,0.45,2.07
5.234476089477539,0.97,-0.86,0.21,1.31
5.244609117507935,0.26,-0.66,-0.07,0.71
5.255925178527832,-0.27,-0.37,-0.2,0.49
5.264737129211426,-0.57,-0.07,-0.26,0.63
5.2746901512146,-0.63,-0.08,-0.27,0.69
5.284975051879883,-0.61,-0.13,-0.12,0.63
5.299682140350342,-0.63,-0.27,-0.01,0.68
5.306398153305054,-0.72,-0.49,0.02,0.87
5.315132141113281,-0.87,-0.68,-0.12,1.11
5.325119972229004,-1.08,-0.64,-0.2,1.27
5.335317134857178,-1.36,-0.41,-0.31,1.45
5.345400094985962,-1.64,-0.23,-0.44,1.71
5.356776237487793,-1.84,-0.17,-0.49,1.91
5.365608215332031,-1.94,-0.19,-0.54,2.02
5.38341212272644,-2.0,-0.33,-0.58,2.1
5.385611057281494,-2.13,-0.57,-0.48,2.25
5.3957343101501465,-2.37,-0.57,-0.35,2.46
5.40690016746521,-2.62,-0.31,-0.58,2.7
5.4158830642700195,-2.9,-0.12,-0.89,3.03
5.42626428604126,-3.27,-0.27,-1.13,3.47
5.435973167419434,-3.69,-0.58,-1.11,3.89
5.446178197860718,-4.1,-0.64,-0.99,4.26
5.457732200622559,-4.33,-0.78,-0.84,4.47
5.466435194015503,-4.6,-1.25,-1.0,4.87
5.477585315704346,-5.09,-1.93,-1.37,5.61
5.486553192138672,-5.62,-2.29,-1.51,6.25
5.499873161315918,-5.97,-1.4,-1.13,6.23
5.507913112640381,-4.72,-0.42,-2.74,5.47
5.516773223876953,-1.33,-5.69,-3.55,6.83
5.526617050170898,4.23,1.03,8.48,9.53
5.537012100219727,11.16,13.61,5.85,18.54
5.547048091888428,11.91,19.82,1.89,23.2
5.558454990386963,1.93,3.79,-9.75,10.63
5.567195177078247,-6.63,-8.83,-24.01,26.42
5.578163146972656,-11.07,-5.25,11.99,17.14
5.587352275848389,-12.4,-0.99,13.2,18.13
5.599542140960693,-9.58,-3.02,0.79,10.07
5.609241008758545,-4.88,-3.71,-1.37,6.28
5.617570161819458,-0.17,-0.61,-0.16,0.65
5.627606153488159,3.1,1.49,1.59,3.78
5.637726306915283,3.58,1.87,-1.62,4.35
5.647919178009033,2.96,0.69,-3.42,4.57
5.659733295440674,2.05,0.11,-0.99,2.27
5.6679840087890625,0.47,0.09,-0.19,0.51
5.6790032386779785,-0.83,-0.45,-1.08,1.43
5.68809700012207,-1.37,-0.97,-1.79,2.45
5.69934606552124,-1.25,-0.83,-1.16,1.89
5.709742069244385,-1.0,-0.57,-0.57,1.28
5.718420028686523,-0.94,-0.39,-0.49,1.12
5.728464126586914,-0.63,-0.09,0.06,0.63
5.738564968109131,-0.6,-0.42,-0.46,0.86
5.748695135116577,-0.61,-0.02,-0.11,0.62
5.7605061531066895,-0.86,-0.7,-1.26,1.67
5.768988132476807,-0.94,-0.4,-0.86,1.33
5.783740997314453,-0.78,-0.32,-0.47,0.96
5.788908004760742,-0.79,-0.45,-0.71,1.15
5.799039125442505,-0.67,-0.18,-0.03,0.69
5.810502052307129,-0.55,-0.14,0.25,0.62
5.819146156311035,-0.35,-0.13,-0.06,0.37
5.829337120056152,0.02,-0.02,-0.14,0.14
5.8393073081970215,0.31,0.14,-0.03,0.34
5.849468231201172,0.41,0.08,-0.35,0.54
5.861298084259033,0.43,0.04,-0.6,0.73
5.869716167449951,0.52,0.12,-0.25,0.58
5.885045051574707,0.51,0.14,-0.15,0.54
5.8897480964660645,0.3,0.13,-0.3,0.44
5.899929046630859,0.13,-0.04,-0.19,0.23
5.910982131958008,0.16,0.01,-0.12,0.2
5.920044183731079,0.13,0.03,-0.2,0.24
5.930156230926514,0.04,-0.07,-0.55,0.55
5.9402360916137695,0.0,-0.05,-0.53,0.53
5.9503092765808105,0.12,0.06,-0.01,0.13
5.961395263671875,0.04,0.14,0.04,0.15
5.97035813331604,-0.18,-0.01,-0.18,0.25
5.980576038360596,-0.21,-0.09,-0.04,0.23
5.9904890060424805,-0.23,-0.09,0.09,0.26
6.00066614151001,-0.32,-0.08,0.03,0.33
6.012004137039185,-0.3,-0.1,-0.03,0.31
6.02080512046814,-0.13,-0.07,-0.03,0.15
6.030924320220947,-0.07,0.05,0.19,0.2
6.041123151779175,-0.39,-0.08,0.07,0.4
6.0511250495910645,-0.52,-0.17,-0.1,0.55
6.062924146652222,-0.16,0.24,0.56,0.62
6.071269989013672,0.45,0.35,0.75,0.94
6.081332206726074,0.0,-0.22,-0.12,0.25
6.091415166854858,-0.36,0.06,0.28,0.46
6.101431131362915,-0.28,0.31,0.78,0.88
6.112724304199219,0.11,-0.26,-0.46,0.53
6.121644973754883,-0.55,0.17,-0.76,0.95
6.131789207458496,-0.74,0.66,0.07,0.99
6.141832113265991,-0.03,0.45,-0.47,0.65
6.151877164840698,1.16,1.06,-0.99,1.85
6.1634681224823,1.68,1.83,-1.55,2.92
6.173376083374023,1.95,2.86,-1.31,3.7
6.187555313110352,3.09,3.95,-0.08,5.01
6.192538261413574,4.02,5.46,0.82,6.82
6.202360153198242,3.89,6.4,0.25,7.49
6.213525295257568,3.51,6.19,-0.93,7.17
6.2225213050842285,4.19,6.07,0.24,7.37
6.232524156570435,4.78,4.41,1.42,6.65
6.242987155914307,4.91,4.37,0.8,6.62
6.252708196640015,4.4,2.62,-1.34,5.29
6.26422119140625,5.33,1.32,1.13,5.6
6.274025201797485,8.02,1.75,7.58,11.17
6.288105010986328,9.76,1.49,10.3,14.26
6.293016195297241,9.31,0.57,6.77,11.52
6.303169250488281,8.5,0.22,3.3,9.12
6.3145670890808105,8.85,0.67,4.43,9.91
6.3233489990234375,9.33,1.36,6.05,11.2
6.333317279815674,9.37,2.18,5.67,11.16
6.343346118927002,8.5,2.32,4.71,9.99
6.353518009185791,7.02,1.47,4.49,8.46
6.3652191162109375,6.02,0.69,4.66,7.64
6.374802112579346,5.14,0.41,4.12,6.6
6.389146089553833,4.81,-0.03,3.67,6.05
6.393678188323975,4.45,0.33,3.23,5.5
6.404015064239502,3.88,1.0,2.75,4.85
6.415332317352295,3.06,1.51,2.46,4.2
6.424135208129883,1.82,1.93,2.45,3.61
6.434211254119873,0.82,1.45,3.16,3.57
6.444320201873779,1.24,0.87,3.76,4.05
6.4545111656188965,2.84,1.05,3.11,4.34
6.465753078460693,4.08,1.5,2.01,4.78
6.483588218688965,4.03,1.77,0.91,4.49
6.490230083465576,3.34,1.4,0.44,3.64
6.494519233703613,2.67,0.62,0.43,2.77
6.504762172698975,2.15,0.1,0.34,2.17
6.51616907119751,1.77,-0.25,0.24,1.8
6.524929046630859,1.41,-0.12,-0.36,1.46
6.534927129745483,1.0,0.28,-0.91,1.38
6.545085191726685,0.73,0.52,-0.65,1.1
6.555164098739624,0.31,0.99,-0.6,1.19
6.566656112670898,-0.2,1.58,-0.91,1.83
6.575284004211426,-0.54,1.95,-0.98,2.24
6.589851140975952,-0.92,2.17,-0.93,2.53
6.595537185668945,-1.39,2.2,-1.18,2.85
6.605558156967163,-1.84,2.27,-1.32,3.2
6.616742134094238,-2.28,2.28,-1.9,3.74
6.626164197921753,-2.69,2.24,-2.34,4.21
6.635847091674805,-3.1,2.17,-2.01,4.28
6.645936012268066,-3.69,2.19,-2.08,4.76
6.65601921081543,-4.33,2.39,-2.35,5.47
6.667466163635254,-5.2,2.74,-2.34,6.32
6.6831231117248535,-6.06,2.71,-3.14,7.34
6.689441204071045,-6.86,1.82,-3.46,7.89
6.696322202682495,-7.65,0.73,-3.35,8.38
6.706363201141357,-8.42,-0.33,-2.97,8.93
6.717594146728516,-9.01,-1.31,-2.73,9.5
6.72665810585022,-9.5,-1.94,-2.67,10.05
6.736622095108032,-9.8,-2.22,-2.9,10.45
6.746784210205078,-9.86,-2.49,-3.1,10.63
6.756697177886963,-9.6,-2.78,-2.93,10.41
6.768027305603027,-8.88,-2.35,-2.82,9.6
6.782749176025391,-8.16,-1.3,-2.5,8.63
6.78890323638916,-7.45,-0.56,-2.03,7.74
6.797176122665405,-7.0,-0.52,-2.73,7.53
6.807345151901245,-6.32,0.54,-2.79,6.92
6.818359136581421,-3.96,1.07,-4.06,5.77
6.8273561000823975,-3.93,-0.61,-7.22,8.24
6.8373870849609375,-5.09,-1.9,-6.4,8.39
6.8475501537323,3.49,21.75,10.64,24.46
6.857617139816284,8.24,13.66,12.75,20.42
6.86888313293457,2.04,-7.15,-1.47,7.57
6.8826003074646,2.16,6.2,-4.93,8.21
6.888817310333252,-0.58,9.64,-7.78,12.4
6.897979259490967,-5.5,-1.08,-17.69,18.55
6.908056259155273,-11.16,-7.02,8.15,15.49
6.919254302978516,-14.17,-7.59,12.66,20.46
6.928244113922119,-11.73,-4.94,-8.69,15.41
6.938171148300171,-8.82,-4.57,-5.15,11.18
6.94838809967041,-4.73,-2.75,-1.63,5.7
6.958471298217773,-0.76,0.13,1.42,1.61
6.971457004547119,0.7,0.69,-0.91,1.33
6.982973098754883,1.3,0.08,-2.6,2.9
6.989321231842041,1.71,0.27,-1.34,2.18
6.998770236968994,0.85,0.38,0.47,1.04
7.009234189987183,-0.09,0.15,0.95,0.96
7.019944190979004,-0.63,-0.52,-0.51,0.96
7.029039144515991,-0.64,-0.3,-0.18,0.72
7.039078235626221,-0.3,-0.04,0.29,0.41
7.049252033233643,-0.57,-0.54,-1.46,1.65
7.059685230255127,-0.61,-0.34,-0.75,1.02
7.072051048278809,-0.51,-0.29,-0.26,0.64
7.083293199539185,-0.41,-0.05,0.04,0.41
7.090025186538696,-0.11,0.08,0.4,0.42
7.099593162536621,-0.13,-0.32,-0.43,0.55
7.109742164611816,0.1,0.06,0.27,0.29
7.120974063873291,0.43,0.16,0.2,0.5
7.129907131195068,0.65,0.29,-0.18,0.73
7.139825105667114,0.71,0.32,-0.39,0.87
7.150052070617676,0.51,-0.19,-0.9,1.05
7.159934043884277,0.06,-0.13,-0.59,0.6
7.172455310821533,-0.14,-0.1,-0.07,0.18
7.18290114402771,-0.06,-0.07,0.17,0.19
7.190304279327393,0.17,0.1,0.38,0.42
7.200383186340332,0.31,0.3,0.44,0.61
7.2103753089904785,0.67,0.53,0.51,0.99
7.221709251403809,0.39,-0.16,-1.13,1.2
7.230710029602051,0.14,-0.04,-0.98,0.99
7.24061918258667,0.2,0.06,0.0,0.2
7.250847101211548,-0.25,-0.02,-0.03,0.25
7.260974168777466,-0.6,-0.29,-0.08,0.67
7.27363920211792,-0.4,-0.11,0.61,0.73
7.282719135284424,-0.26,0.05,0.81,0.85
7.291074275970459,-0.3,-0.11,0.12,0.34
7.301255226135254,-0.07,-0.07,-0.31,0.32
7.3113791942596436,0.37,0.01,-0.65,0.74
7.322571277618408,0.86,0.4,-0.22,0.97
7.331603050231934,0.52,0.03,-0.85,0.99
7.3414671421051025,0.2,0.09,-0.05,0.22
7.351731300354004,-0.19,-0.23,0.31,0.43
7.361668109893799,-0.74,-0.51,0.31,0.95
7.372981071472168,-1.08,-0.49,0.92,1.5
7.382869243621826,-1.33,-0.43,0.87,1.64
7.391918182373047,-1.14,-0.37,-0.13,1.2
7.402066230773926,-0.49,-0.09,-0.25,0.55
7.412163257598877,-0.06,0.26,-0.34,0.43
7.4234232902526855,0.06,0.03,-1.33,1.33
7.432403087615967,0.33,0.06,-1.19,1.23
7.4428253173828125,0.3,0.32,-0.56,0.71
7.452451229095459,-0.22,0.5,-1.67,1.75
7.462723255157471,-0.34,0.9,-3.02,3.16
7.473992109298706,0.37,1.88,-2.68,3.29
7.48388409614563,1.38,3.72,-1.96,4.42
7.493027210235596,2.03,4.29,-1.86,5.09
7.502786159515381,2.43,3.52,-1.31,4.47
7.512917995452881,2.8,3.9,-0.32,4.81
7.524248123168945,3.75,6.62,1.43,7.74
7.533147096633911,4.97,6.48,5.09,9.62
7.543169975280762,4.04,5.28,4.92,8.27
7.553300142288208,3.03,5.03,1.56,6.07
7.563417196273804,2.96,4.3,-0.3,5.22
7.57475209236145,3.23,3.46,-1.02,4.84
7.584601163864136,4.47,0.78,0.28,4.54
7.593494176864624,6.41,-0.8,8.55,10.71
7.603655099868774,7.48,1.94,12.1,14.35
7.613908290863037,7.26,2.04,4.14,8.6
7.6252281665802,7.98,-0.85,0.29,8.03
7.634034156799316,9.25,-1.09,2.08,9.54
7.64387321472168,9.62,1.08,3.46,10.28
7.654146194458008,9.53,2.45,2.96,10.27
7.664239168167114,9.71,2.23,2.57,10.28
7.682867050170898,9.67,2.26,2.85,10.33
7.684993267059326,7.87,2.03,3.26,8.75
7.694565296173096,5.99,0.87,4.32,7.43
7.7043561935424805,5.21,0.44,5.29,7.43
7.7146100997924805,4.94,0.65,5.46,7.39
7.726184129714966,4.78,0.92,4.71,6.77
7.7346930503845215,4.35,1.24,3.46,5.69
7.744842052459717,3.62,1.2,2.52,4.57
7.754863262176514,2.82,0.8,2.51,3.85
7.766313076019287,2.32,0.61,2.87,3.74
7.783306121826172,2.29,0.75,2.92,3.78
7.785296201705933,2.47,0.9,2.39,3.55
7.795128107070923,2.7,0.86,1.62,3.26
7.805222034454346,2.66,0.76,1.03,2.95
7.815384149551392,2.43,0.56,0.74,2.6
7.827160120010376,2.21,0.25,0.85,2.38
7.8355631828308105,2.02,0.03,0.98,2.24
7.845544099807739,1.66,0.64,0.41,1.82
7.855725288391113,1.22,1.44,-0.03,1.88
7.866909980773926,0.86,1.8,0.25,2.01
7.884444236755371,0.36,2.29,0.24,2.33
7.8864850997924805,-0.14,2.5,0.15,2.5
7.896099090576172,-0.58,2.38,-0.11,2.45
7.906074047088623,-1.01,2.02,-0.65,2.35
7.916215181350708,-1.3,1.36,-0.97,2.11
7.927739143371582,-1.47,0.69,-1.07,1.94
7.936384201049805,-1.55,0.26,-1.16,1.95
7.946432113647461,-1.61,0.08,-1.25,2.03
7.956520080566406,-1.62,0.13,-1.47,2.19
7.967586040496826,-1.62,0.45,-1.6,2.32
7.984498023986816,-1.81,1.12,-1.65,2.69
7.986767292022705,-2.13,2.13,-2.15,3.7
7.9968461990356445,-2.35,3.14,-3.15,5.03
8.006909132003784,-2.66,4.1,-3.02,5.74
8.017091274261475,-3.37,4.87,-2.95,6.61
8.028313159942627,-4.26,4.38,-3.77,7.17
8.037257194519043,-5.03,3.06,-4.27,7.27
8.047348022460938,-5.88,1.9,-4.15,7.44
8.057486057281494,-6.73,0.84,-3.91,7.82
8.068969249725342,-7.39,-0.15,-3.89,8.35
8.084671974182129,-7.75,-0.94,-4.21,8.86
8.087642192840576,-8.0,-1.38,-4.14,9.11
8.097724199295044,-8.15,-1.56,-3.66,9.06
8.107737064361572,-8.36,-1.37,-3.52,9.17
8.117890119552612,-8.56,-0.93,-2.94,9.09
8.129086971282959,-8.42,-0.67,-2.3,8.75
8.138025283813477,-7.43,-0.39,-2.28,7.78
8.148083209991455,-6.41,0.23,-1.83,6.67
8.158255100250244,-5.74,0.65,-1.08,5.87
8.168278217315674,-5.46,0.61,-0.91,5.56
8.184344291687012,-5.56,0.24,-1.25,5.7
8.188332080841064,-5.74,-0.31,-1.38,5.91
8.198482990264893,-6.03,-0.86,-1.43,6.25
8.208619117736816,-6.47,-1.15,-1.79,6.81
8.218729019165039,-7.05,-1.27,-2.22,7.49
8.230126142501831,-7.67,-1.95,-3.19,8.53
8.238903045654297,-6.31,-1.45,-3.14,7.19
8.248932123184204,-2.73,-2.8,-3.79,5.44
8.259387969970703,5.74,11.63,9.56,16.11
8.269107103347778,13.22,21.16,15.57,29.4
8.284255027770996,4.25,-3.6,-1.95,5.9
8.289226055145264,4.15,-1.99,-5.31,7.02
8.299273014068604,3.47,4.32,-2.66,6.14
8.3097562789917,0.57,5.02,2.12,5.47
8.319558143615723,-1.62,1.71,0.46,2.4
8.330904006958008,-2.81,4.38,0.13,5.2
8.339649200439453,-5.08,2.11,-7.03,8.92
8.34968614578247,-7.81,-4.99,-3.83,10.02
8.360042095184326,-9.14,-6.28,3.15,11.52
8.369891166687012,-8.01,-4.12,-2.39,9.31
8.38419508934021,-6.25,-2.29,-5.35,8.53
8.389938116073608,-3.93,-1.52,-1.36,4.42
8.400042057037354,-2.07,-0.58,1.91,2.87
8.409963130950928,-1.27,-0.22,0.49,1.37
8.42029619216919,-0.68,-0.48,-1.73,1.91
8.431684017181396,0.28,-0.07,-0.37,0.46
8.440524101257324,0.82,0.36,1.41,1.67
8.45048213005066,0.65,0.4,0.88,1.16
8.460531234741211,0.09,-0.16,-1.59,1.6
8.470633029937744,-0.15,-0.33,-1.7,1.73
8.484784126281738,-0.21,-0.4,-0.96,1.06
8.490777015686035,-0.45,-0.39,-1.43,1.54
8.500930309295654,-0.54,-0.32,-1.49,1.61
8.510943174362183,-0.38,-0.25,-0.56,0.72
8.521139144897461,-0.26,-0.08,0.32,0.42
8.532503128051758,-0.24,-0.01,0.42,0.48
8.541343212127686,-0.25,-0.03,0.38,0.45
8.551389217376709,-0.2,0.0,0.58,0.61
8.562999248504639,-0.12,0.11,0.66,0.67
8.571465015411377,-0.18,0.0,-0.29,0.34
8.58467721939087,-0.3,-0.38,-1.46,1.53
8.591694116592407,-0.06,-0.11,-0.62,0.63
8.601765155792236,0.3,-0.05,-0.13,0.33
8.61187219619751,0.44,-0.03,-0.32,0.54
8.621932029724121,0.69,0.08,-0.21,0.72
8.63318419456482,0.93,0.25,0.05,0.96
8.642017126083374,0.93,0.25,-0.04,0.96
8.65202522277832,0.9,0.25,-0.15,0.94
8.663457155227661,0.79,0.24,-0.08,0.82
8.672167301177979,0.51,0.24,0.13,0.57
8.68422818183899,0.24,0.22,0.15,0.35
8.692770004272461,0.07,0.12,0.07,0.15
8.702476024627686,0.04,0.02,0.24,0.24
8.712576150894165,0.03,0.07,0.54,0.54
8.722702980041504,-0.17,0.05,0.38,0.41
8.734024047851562,-0.31,-0.07,0.35,0.47
8.743197202682495,-0.26,-0.02,0.59,0.64
8.753023147583008,-0.31,0.06,0.55,0.63
8.7643461227417,-0.28,0.14,0.59,0.66
8.773240089416504,-0.1,0.17,0.67,0.69
8.784815311431885,0.04,0.19,0.64,0.66
8.793099164962769,0.22,0.3,0.89,0.96
8.803354263305664,0.47,0.5,0.7,0.98
8.813513278961182,0.48,0.66,0.2,0.84
8.823551177978516,0.63,0.78,-0.13,1.01
8.834862232208252,0.32,0.17,-2.05,2.08
8.84363603591919,0.47,0.59,-2.05,2.18
8.853862285614014,0.92,0.85,-1.82,2.2
8.865031242370605,1.2,1.3,-1.88,2.58
8.87406301498413,1.38,1.72,-1.93,2.93
8.885900020599365,1.74,2.38,-1.53,3.32
8.893968105316162,1.79,3.0,-0.39,3.51
8.904170989990234,1.34,3.52,-0.5,3.79
8.914246082305908,1.41,4.27,-0.7,4.55
8.924342155456543,1.86,4.65,-0.18,5.01
8.93570327758789,1.99,4.96,0.47,5.36
8.944688320159912,1.64,6.32,0.45,6.54
8.954509258270264,1.52,8.13,-0.67,8.29
8.964733123779297,2.35,7.76,-0.48,8.12
8.974740982055664,4.39,6.31,2.69,8.14
8.986180305480957,6.32,6.47,5.01,10.33
8.99488615989685,6.49,8.71,2.25,11.09
9.004969120025635,5.5,10.64,-1.73,12.1
9.015053272247314,5.31,10.69,-2.88,12.27
9.02514910697937,5.71,11.33,0.27,12.69
9.036485195159912,6.36,13.05,1.89,14.63
9.045495986938477,7.3,10.56,1.95,12.98
9.055403232574463,8.1,3.66,-1.81,9.07
9.065635204315186,10.97,-1.89,1.27,11.2
9.082998275756836,13.42,0.76,10.94,17.33
9.087529182434082,12.28,1.59,6.63,14.04
9.095821142196655,12.09,-0.34,0.91,12.12
9.105850219726562,12.83,-0.8,0.2,12.85
9.116054058074951,12.93,-0.12,1.93,13.07
9.126629114151001,11.28,-0.39,3.38,11.78
9.137439250946045,9.56,-1.1,3.63,10.28
9.146289110183716,8.45,-1.29,3.73,9.32
9.15628719329834,7.66,-1.15,4.45,8.93
9.166393280029297,6.95,-0.75,5.1,8.65
9.183309078216553,6.22,-0.61,5.03,8.02
9.187580108642578,5.81,-0.61,4.64,7.46
9.19659423828125,5.72,-0.3,4.1,7.04
9.206618309020996,5.54,-0.23,3.34,6.47
9.21675419807434,5.21,-0.58,2.82,5.95
9.226778984069824,4.84,-0.83,2.39,5.46
9.238205194473267,4.62,-0.71,2.15,5.14
9.247006177902222,4.5,-0.41,1.83,4.87
9.257066249847412,4.28,-0.08,1.38,4.49
9.267254114151001,3.89,0.18,0.87,3.99
9.283181190490723,3.47,0.43,0.38,3.51
9.28842306137085,3.0,0.72,-0.07,3.08
9.297342300415039,2.49,1.19,-0.76,2.86
9.307590007781982,1.85,2.08,-1.53,3.17
9.317593097686768,1.09,3.11,-1.57,3.65
9.327674150466919,0.46,3.88,-1.04,4.04
9.338979244232178,-0.28,4.54,-0.8,4.61
9.34788703918457,-0.94,4.95,-1.45,5.24
9.365742206573486,-1.19,4.88,-2.77,5.73
9.36787223815918,-1.42,5.03,-3.87,6.5
9.37802505493164,-1.88,5.6,-4.32,7.31
9.389283180236816,-2.48,6.32,-4.26,8.01
9.398215293884277,-3.06,6.78,-4.0,8.44
9.408336162567139,-3.45,6.85,-3.99,8.64
9.418488025665283,-4.02,7.2,-4.63,9.45
9.428704261779785,-4.54,6.71,-5.76,9.94
9.439913272857666,-5.43,7.0,-6.36,10.9
9.448821067810059,-6.31,7.23,-5.72,11.17
9.46807312965393,-6.92,6.28,-6.09,11.15
9.471840143203735,-7.72,5.2,-7.24,11.79
9.478989124298096,-8.52,3.97,-7.23,11.85
9.490210056304932,-9.53,2.38,-5.64,11.32
9.499052047729492,-10.81,0.61,-3.26,11.3
9.509505271911621,-12.23,-1.41,-0.57,12.32
9.519420146942139,-13.76,-3.16,1.42,14.18
9.52934718132019,-14.87,-4.13,1.42,15.49
9.540629148483276,-14.9,-4.35,-0.04,15.52
9.54953908920288,-12.53,-3.55,-0.42,13.02
9.567804098129272,-8.94,-2.03,0.53,9.18
9.569651126861572,-7.03,-0.59,0.33,7.06
9.579626083374023,-6.79,0.35,-1.19,6.9
9.590826034545898,-7.58,-0.25,-1.94,7.82
9.59977102279663,-8.31,-1.08,-1.24,8.47
9.609901189804077,-7.96,-0.88,-1.78,8.2
9.619932174682617,-5.92,1.88,2.07,6.54
9.630149126052856,-1.49,0.88,-6.62,6.84
9.641340255737305,3.75,2.37,1.37,4.64
9.650279998779297,13.05,23.63,20.5,33.89
9.661421298980713,9.39,14.08,4.45,17.49
9.670303106307983,0.66,-5.19,-5.4,7.51
9.683541297912598,-3.06,1.87,-1.13,3.75
9.69168210029602,-6.19,7.35,7.32,12.07
9.700648307800293,-6.05,7.47,-1.48,9.72
9.710690021514893,-7.78,-5.43,-18.33,20.63
9.720757007598877,-9.7,-11.35,-9.77,17.84
9.730947971343994,-13.69,-11.77,8.25,19.84
9.74277114868164,-13.93,-7.12,0.62,15.65
9.751110076904297,-11.82,-4.65,-3.45,13.16
9.765858173370361,-8.03,-4.11,-2.23,9.29
9.771222114562988,-4.19,-2.18,-1.96,5.11
9.781291007995605,-1.01,-0.34,-0.63,1.23
9.79297924041748,0.49,0.14,-1.07,1.18
9.801445007324219,1.46,0.48,-1.27,1.99
9.811609268188477,2.6,1.19,0.05,2.85
9.821563243865967,2.32,1.14,-0.27,2.59
9.831768989562988,1.58,0.57,-0.36,1.71
9.843521118164062,0.57,0.03,-0.57,0.8
9.851984024047852,-0.57,-0.39,-0.66,0.95
9.86722707748413,-1.44,-0.64,-0.87,1.8
9.871979236602783,-1.51,-0.67,-0.79,1.83
9.882153034210205,-1.01,-0.46,-0.49,1.21
9.893813133239746,-0.36,-0.18,-0.29,0.49
9.902306079864502,0.38,0.12,-0.04,0.4
9.912419319152832,0.91,0.41,0.08,1.0
9.922447204589844,1.11,0.44,-0.16,1.2
9.932502269744873,1.1,0.44,0.19,1.19
9.94432020187378,0.72,0.25,0.18,0.78
9.952836036682129,0.24,0.01,-0.24,0.33
9.969375133514404,0.12,0.04,-0.08,0.14
9.97287130355835,0.22,-0.02,0.27,0.34
9.98300814628601,0.09,0.04,-0.04,0.1
9.994530200958252,0.08,0.13,-0.18,0.23
10.003154277801514,0.44,0.24,-0.06,0.5
10.013353109359741,0.46,0.3,-0.03,0.55
10.02327823638916,0.36,0.22,-0.19,0.46
10.033392190933228,0.29,0.22,-0.15,0.39
10.044727087020874,0.28,0.34,0.31,0.53
10.053653240203857,0.1,0.28,0.45,0.53
10.06873607635498,0.08,0.26,0.36,0.45
10.07371211051941,0.04,0.22,-0.21,0.3
10.083761215209961,0.05,0.14,-0.6,0.61
10.094808101654053,0.13,0.26,-0.48,0.56
10.10391616821289,0.21,0.45,-0.46,0.67
10.114113092422485,0.49,0.77,-0.25,0.94
10.12407922744751,0.77,1.17,0.23,1.41
10.134323120117188,0.73,1.61,0.49,1.83
10.145580291748047,0.71,1.66,0.04,1.8
10.15600299835205,0.88,1.72,-0.61,2.02
10.170042991638184,1.24,2.4,-0.38,2.72
10.174443244934082,1.36,2.62,0.96,3.1
10.184550285339355,0.7,2.07,-0.18,2.19
10.195841312408447,0.53,2.14,-0.99,2.41
10.204713106155396,0.99,2.46,-0.19,2.65
10.21484112739563,1.16,2.76,-0.26,3.0
10.224951267242432,1.18,3.41,-0.33,3.62
10.235035181045532,1.23,4.34,-0.01,4.51
10.246469020843506,1.5,5.11,-0.01,5.32
10.256550312042236,1.82,5.44,-0.03,5.73
10.270328998565674,2.12,5.66,0.16,6.04
10.27524709701538,2.34,6.13,0.78,6.6
10.285309314727783,2.74,7.48,1.7,8.14
10.296627044677734,3.44,9.31,2.44,10.22
10.305536270141602,3.91,11.69,1.41,12.4
10.31619119644165,4.46,12.84,-0.3,13.59
10.326045989990234,5.34,12.3,-1.53,13.49
10.33589506149292,5.44,11.5,-0.98,12.75
10.347102165222168,5.78,11.34,-0.39,12.73
10.357157230377197,6.01,10.63,0.32,12.21
10.370033264160156,5.98,9.34,0.02,11.09
10.376464128494263,6.47,6.46,-0.78,9.17
10.386198043823242,7.02,2.08,-2.82,7.84
10.397550106048584,9.1,0.16,5.19,10.47
10.406352043151855,8.13,1.03,7.21,10.91
10.416404247283936,6.56,0.48,0.67,6.61
10.426684141159058,9.01,-0.41,1.79,9.19
10.436652183532715,10.45,-0.38,3.36,10.98
10.448158264160156,10.12,-0.11,2.9,10.52
10.45822811126709,9.12,0.15,2.59,9.48
10.472148180007935,8.36,-0.1,3.34,9.0
10.476622104644775,8.06,-0.2,4.71,9.33
10.486929178237915,7.91,-0.06,5.21,9.47
10.498452186584473,7.7,0.05,5.02,9.19
10.507097244262695,7.38,0.05,4.97,8.89
10.517353057861328,6.82,0.04,4.81,8.34
10.52726125717163,6.19,-0.04,4.55,7.68
10.537543296813965,5.77,-0.15,4.23,7.15
10.549134254455566,5.31,-0.12,3.6,6.41
10.557700157165527,4.73,-0.03,3.05,5.62
10.572618007659912,3.94,-0.02,2.7,4.77
10.577749252319336,2.99,0.05,2.45,3.86
10.587772130966187,2.11,0.12,2.25,3.08
10.599110126495361,1.43,0.12,1.98,2.44
10.60803508758545,1.14,0.26,1.83,2.17
10.618165016174316,1.08,0.53,1.72,2.09
10.628217220306396,1.0,0.94,1.53,2.05
10.638333320617676,0.7,1.46,1.35,2.1
10.649840116500854,0.19,1.98,1.09,2.26
10.658584117889404,-0.36,2.48,0.79,2.62
10.673174142837524,-0.9,2.99,0.49,3.16
10.678574085235596,-1.41,3.57,0.11,3.83
10.688607215881348,-1.91,4.3,-0.41,4.72
10.700031280517578,-2.53,5.15,-0.9,5.8
10.708883285522461,-3.35,5.83,-1.44,6.87
10.719050168991089,-4.07,6.65,-1.89,8.02
10.729011058807373,-4.94,7.56,-2.26,9.3
10.739156246185303,-5.48,7.46,-2.43,9.57
10.750535011291504,-6.09,6.97,-2.81,9.67
10.766548156738281,-6.82,6.24,-3.66,9.94
10.772984981536865,-7.42,5.76,-4.38,10.36
10.7793550491333,-8.02,5.3,-4.42,10.58
10.78947401046753,-8.54,4.77,-4.98,10.97
10.800800323486328,-8.92,4.08,-5.84,11.41
10.809997081756592,-9.4,3.22,-5.7,11.45
10.819764137268066,-10.24,2.17,-4.9,11.55
10.829843044281006,-11.75,0.3,-2.82,12.08
10.839874267578125,-13.56,-1.8,-0.64,13.69
10.851294040679932,-14.89,-3.4,-0.47,15.28
10.866332054138184,-15.66,-4.36,-1.46,16.32
10.872579097747803,-15.76,-4.52,-2.0,16.51
10.880284309387207,-14.13,-3.91,-1.95,14.79
10.890200138092041,-11.45,-2.79,-1.87,11.93
10.901572227478027,-7.88,-0.11,-1.55,8.03
10.910304069519043,-3.89,-1.83,-7.15,8.34
10.92059326171875,-2.21,-2.95,-5.29,6.44
10.930630207061768,-1.8,0.81,10.42,10.6
10.940700054168701,-1.61,6.55,10.46,12.44
10.95370101928711,0.25,12.0,-0.36,12.0
10.96659803390503,4.89,18.53,-2.47,19.32
10.973082065582275,0.51,5.18,1.07,5.31
10.981138229370117,-3.96,-0.08,-1.0,4.08
10.991111278533936,-6.91,-1.38,-2.7,7.54
11.002354145050049,-7.8,-2.43,-0.01,8.16
11.011348247528076,-6.3,2.0,-0.76,6.65
11.021363258361816,-6.13,0.73,-8.49,10.49
11.031442165374756,-5.71,-5.78,-8.85,12.01
11.041520118713379,-5.81,-3.93,1.38,7.14
11.054082155227661,-6.77,-2.62,4.14,8.35
11.06627607345581,-6.13,-2.56,-2.61,7.13
11.072365283966064,-4.05,-2.66,-3.0,5.69
11.081834316253662,-1.85,-1.07,-1.04,2.37
11.091874122619629,-0.14,0.29,0.44,0.54
11.103145122528076,0.62,0.24,-0.24,0.7
11.11204719543457,1.02,0.34,-0.51,1.19
11.122120141983032,1.0,0.46,-0.04,1.1
11.132230281829834,0.53,0.11,-0.4,0.67
11.142346143722534,0.4,0.0,-0.36,0.53
11.154733180999756,0.01,-0.2,-0.34,0.39
11.166365146636963,-0.53,-0.25,-0.29,0.65
11.172468185424805,-0.65,-0.41,-0.5,0.91
11.182631969451904,-0.49,-0.29,-0.59,0.81
11.19307017326355,0.0,-0.02,-0.27,0.27
11.203935146331787,0.56,0.22,0.01,0.6
11.212944984436035,0.81,0.32,0.09,0.87
11.222942113876343,0.82,0.33,0.11,0.89
11.233123302459717,0.79,0.32,0.2,0.87
11.243370056152344,0.63,0.22,0.11,0.67
11.25595998764038,0.47,0.19,-0.02,0.5
11.266755104064941,0.32,0.12,-0.05,0.34
11.273346185684204,0.26,0.09,-0.11,0.29
11.283501148223877,0.13,0.05,-0.26,0.29
11.293459177017212,0.1,0.17,0.31,0.36
11.304952144622803,0.13,0.26,0.72,0.77
11.313838005065918,0.0,0.31,0.66,0.72
11.323873043060303,-0.2,0.23,0.41,0.51
11.333934307098389,-0.18,0.17,0.34,0.42
11.343846321105957,-0.15,0.12,0.27,0.33
11.355355262756348,-0.14,0.06,-0.32,0.35
11.3661789894104,-0.08,-0.02,-0.79,0.79
11.374166011810303,-0.16,-0.07,-0.81,0.82
11.384335994720459,-0.2,0.04,-0.73,0.75
11.394540309906006,-0.06,0.23,-0.53,0.58
11.405676126480103,0.19,0.47,-0.21,0.54
11.414610147476196,0.51,0.99,0.02,1.11
11.424614191055298,0.95,1.55,0.16,1.82
11.434660196304321,1.51,2.13,0.48,2.65
11.444945096969604,1.91,2.41,1.01,3.23
11.456106185913086,1.79,2.23,0.59,2.91
11.467304229736328,1.59,2.42,0.09,2.89
11.474858283996582,1.37,2.55,-0.01,2.89
11.48513126373291,1.08,2.44,-0.26,2.68
11.495131015777588,0.89,2.22,-0.51,2.44
11.50657606124878,0.83,2.09,-0.42,2.28
11.515388011932373,0.92,2.28,-0.22,2.46
11.525515079498291,1.26,3.24,0.03,3.47
11.53562617301941,1.51,4.19,-0.13,4.45
11.545701026916504,1.5,4.84,-0.91,5.14
11.55731725692749,1.58,5.64,-1.59,6.06
11.567198276519775,1.95,5.71,-1.88,6.31
11.576305150985718,2.41,5.96,-1.25,6.54
11.586143016815186,2.84,7.16,1.15,7.78
11.596110105514526,3.46,9.15,3.25,10.3
11.60749101638794,4.11,11.74,2.82,12.75
11.61672830581665,5.12,12.37,0.99,13.42
11.626619100570679,5.9,12.17,-0.69,13.54
11.63658618927002,5.9,13.1,-0.52,14.37
11.64647626876831,6.81,12.57,-0.29,14.29
11.657863140106201,7.86,11.44,0.72,13.89
11.667441129684448,8.12,10.31,1.73,13.23
11.676674127578735,9.18,7.6,0.5,11.92
11.686753273010254,9.71,3.52,-3.35,10.85
11.696828126907349,10.75,0.36,1.06,10.8
11.708144187927246,9.81,1.15,9.09,13.42
11.717055320739746,6.4,0.66,1.8,6.68
11.72697925567627,8.07,-0.92,0.96,8.17
11.737211227416992,10.32,-1.43,2.71,10.76
11.748792171478271,10.8,-0.7,3.03,11.23
11.758836269378662,10.56,0.18,3.45,11.11
11.76832103729248,10.0,0.26,3.54,10.61
11.777305126190186,9.19,-0.04,3.76,9.92
11.787559032440186,8.09,-0.36,3.95,9.01
11.797737121582031,7.01,-0.76,3.91,8.06
11.809473991394043,6.26,-1.07,3.98,7.49
11.817799091339111,5.73,-0.95,3.94,7.01
11.828010082244873,5.48,-0.39,3.67,6.6
11.837900161743164,5.48,0.12,3.48,6.49
11.849439144134521,5.38,0.44,3.02,6.18
11.866559028625488,4.94,0.65,2.62,5.62
11.868653297424316,4.21,0.83,2.35,4.89
11.878305196762085,3.4,0.96,2.08,4.09
11.888378143310547,2.59,1.01,1.45,3.13
11.898478031158447,1.81,1.01,0.8,2.22
11.910330295562744,1.02,1.08,0.57,1.59
11.918676137924194,0.29,1.15,0.47,1.27
11.928729057312012,-0.16,1.18,0.34,1.23
11.938753128051758,-0.43,1.37,0.25,1.45
11.950214147567749,-0.53,1.71,0.03,1.79
11.967633247375488,-0.67,2.15,-0.35,2.27
11.969748973846436,-0.9,2.7,-0.72,2.93
11.979094982147217,-1.31,3.27,-1.09,3.68
11.989158153533936,-1.84,3.9,-1.57,4.58
11.999320983886719,-2.43,4.57,-2.22,5.63
12.010882139205933,-3.13,5.37,-2.76,6.8
12.019489288330078,-3.58,6.08,-2.61,7.52
12.029630184173584,-4.1,7.3,-2.43,8.71
12.039583206176758,-4.68,8.87,-2.61,10.36
12.051095008850098,-5.28,9.49,-2.96,11.25
12.068305015563965,-6.36,8.84,-4.34,11.72
12.070411205291748,-7.2,7.19,-5.54,11.58
12.079913139343262,-7.84,5.63,-5.47,11.09
12.090013980865479,-8.48,4.52,-5.7,11.17
12.100342273712158,-8.75,3.66,-6.64,11.57
12.11135721206665,-8.93,2.93,-6.69,11.53
12.120337009429932,-9.55,2.29,-5.54,11.27
12.130441188812256,-10.79,1.22,-3.85,11.52
12.140474319458008,-12.3,-0.43,-1.94,12.45
12.15060019493103,-13.87,-1.96,-0.54,14.01
12.168428182601929,-15.09,-2.99,-1.23,15.43
12.170679092407227,-15.45,-4.08,-2.29,16.14
12.180800199508667,-14.43,-4.91,-2.15,15.39
12.190936088562012,-12.25,-4.37,-1.36,13.07
12.201032161712646,-10.04,-3.0,-1.76,10.62
12.212198257446289,-6.97,-0.38,-1.42,7.12
12.221124172210693,-2.97,0.48,-2.4,3.84
12.231234073638916,-0.9,-0.92,-6.24,6.37
12.241308212280273,-1.99,0.22,0.13,2.0
12.251444101333618,-2.08,5.41,9.29,10.94
12.26863431930542,2.7,16.08,8.34,18.31
12.271522998809814,5.84,13.39,-0.54,14.61
12.281575202941895,-1.28,0.2,-4.97,5.13
12.291690111160278,-6.46,0.42,-1.49,6.64
12.301772117614746,-9.13,0.53,0.57,9.16
12.313217163085938,-8.7,-2.38,1.24,9.1
12.32193112373352,-5.92,-2.97,-2.08,6.94
12.332067966461182,-3.98,3.53,-1.3,5.47
12.342061042785645,-4.45,6.13,-7.36,10.56
12.352241039276123,-4.37,-4.28,-12.02,13.48
12.368274211883545,-4.74,-4.79,-1.33,6.86
12.372331142425537,-6.84,-2.89,7.97,10.89
12.382352113723755,-7.32,-2.38,-2.9,8.22
12.39283800125122,-4.89,-3.09,-3.25,6.63
12.402525186538696,-2.22,-1.51,-0.49,2.72
12.413875102996826,-0.18,0.38,0.47,0.63
12.422720193862915,1.0,0.36,-0.55,1.19
12.432907104492188,1.57,0.45,-0.74,1.79
12.443161010742188,1.68,0.73,-0.25,1.84
12.453095197677612,1.23,0.45,-0.49,1.39
12.468603134155273,0.68,0.03,-0.63,0.92
12.473042011260986,0.18,-0.07,0.04,0.19
12.483242988586426,-0.22,-0.25,0.25,0.41
12.493340015411377,-0.31,-0.25,0.11,0.41
12.503355026245117,-0.31,-0.2,-0.29,0.46
12.514710187911987,-0.02,-0.05,-0.17,0.17
12.523555278778076,0.43,0.12,0.1,0.45
12.533619165420532,0.64,0.25,0.09,0.69
12.544926166534424,0.6,0.21,-0.06,0.63
12.553843021392822,0.45,0.14,-0.05,0.47
12.5678231716156,0.28,0.1,-0.16,0.33
12.573927164077759,0.13,0.16,-0.39,0.44
12.583958148956299,0.1,0.06,-0.45,0.46
12.594014167785645,0.0,0.01,-0.38,0.38
12.604223251342773,0.03,0.07,-0.23,0.24
12.615491151809692,0.19,0.21,0.3,0.41
12.62436819076538,0.08,0.22,0.62,0.66
12.634531021118164,-0.07,0.17,0.26,0.31
12.645726203918457,-0.1,0.13,0.08,0.18
12.654670238494873,0.07,0.21,-0.09,0.23
12.668199062347412,0.22,0.17,-0.5,0.57
12.674808025360107,0.4,0.14,-0.93,1.02
12.684868097305298,0.38,0.31,-1.06,1.16
12.694962978363037,0.44,0.55,-0.93,1.16
12.705130100250244,0.4,0.78,-1.09,1.39
12.716423034667969,0.63,1.24,-0.96,1.69
12.725156307220459,1.13,1.56,-0.19,1.93
12.735291004180908,1.5,2.29,0.75,2.83
12.746801137924194,1.49,2.74,1.45,3.43
12.75539517402649,1.29,2.46,1.12,2.99
12.768132209777832,0.92,2.31,0.6,2.55
12.775544166564941,0.72,2.31,0.34,2.44
12.785665035247803,0.58,2.2,-0.16,2.28
12.795872211456299,0.53,2.16,-0.81,2.36
12.805811166763306,0.7,2.42,-0.46,2.56
12.817370176315308,1.14,3.25,0.03,3.44
12.826425075531006,2.0,4.22,0.04,4.67
12.836151123046875,2.35,5.77,-0.48,6.24
12.847440242767334,2.75,7.15,-0.65,7.68
12.856375217437744,3.51,7.09,-0.28,7.91
12.867985248565674,3.79,7.33,-0.04,8.25
12.876909255981445,3.64,8.55,0.2,9.29
12.886452198028564,3.71,9.94,0.54,10.62
12.89657211303711,4.26,10.35,0.2,11.19
12.906682014465332,4.8,9.93,-0.58,11.04
12.917956113815308,5.53,10.02,-2.26,11.66
12.92691421508789,6.06,10.79,-2.24,12.57
12.936971187591553,6.64,11.03,0.33,12.87
12.949717044830322,7.41,11.32,1.17,13.58
12.956983089447021,7.87,11.09,0.21,13.6
12.968249320983887,8.76,9.48,-0.65,12.92
12.977034091949463,10.75,6.4,-1.76,12.63
12.987316131591797,11.89,1.29,-4.59,12.81
12.997453212738037,12.31,-0.29,4.0,12.94
13.007431983947754,8.0,0.94,9.98,12.82
13.018891096115112,5.16,0.28,1.85,5.48
13.027571201324463,8.37,-1.1,4.04,9.35
13.037734985351562,11.4,-2.59,5.45,12.89
13.0506911277771,11.19,-1.39,2.91,11.64
13.057926177978516,9.8,-0.28,1.76,9.96
13.069180011749268,8.69,-0.34,2.03,8.93
13.07813024520874,7.81,-0.42,2.88,8.33
13.088080167770386,7.13,-0.18,3.06,7.76
13.098271131515503,6.64,0.0,2.91,7.24
13.108267307281494,6.27,0.08,2.8,6.86
13.119615077972412,5.76,0.15,2.73,6.37
13.128512144088745,5.07,0.26,2.7,5.75
13.138573169708252,4.34,0.25,2.74,5.13
13.148606300354004,3.72,0.06,2.94,4.74
13.15871810913086,3.27,-0.09,3.11,4.51
13.169997215270996,3.01,-0.11,3.2,4.39
13.178845167160034,2.74,-0.04,2.86,3.96
13.188913106918335,2.27,0.31,2.22,3.19
13.198962211608887,1.47,0.56,1.75,2.35
13.209058284759521,0.59,0.61,1.34,1.58
13.22050428390503,-0.08,0.6,0.99,1.16
13.229290008544922,-0.49,0.69,0.46,0.96
13.23937702178955,-0.75,1.0,0.21,1.26
13.249463081359863,-1.17,1.51,-0.04,1.91
13.266458988189697,-1.68,2.0,-0.44,2.64
13.270922183990479,-2.24,2.48,-0.67,3.4
13.279703140258789,-2.82,2.96,-0.7,4.14
13.289692163467407,-3.39,3.54,-0.71,4.95
13.299898147583008,-3.91,4.37,-1.23,5.99
13.310225009918213,-4.47,5.51,-2.62,7.56
13.321393013000488,-5.02,6.87,-4.64,9.69
13.330190181732178,-5.71,7.98,-4.87,10.95
13.341598987579346,-6.79,9.19,-3.05,11.82
13.350182056427002,-7.47,8.63,-3.13,11.83
13.360167026519775,-7.87,7.66,-5.92,12.47
13.371567249298096,-8.14,6.57,-7.05,12.61
13.380606174468994,-8.74,5.49,-7.68,12.86
13.39048719406128,-9.31,4.21,-8.74,13.44
13.400617122650146,-9.88,2.74,-8.31,13.19
13.410580158233643,-10.82,1.09,-5.53,12.2
13.422063112258911,-12.81,-1.13,-1.77,12.98
13.43093729019165,-15.34,-3.27,0.16,15.68
13.442293167114258,-16.85,-4.17,-1.32,17.4
13.451418161392212,-17.39,-4.53,-3.1,18.23
13.461114168167114,-16.79,-4.7,-4.41,17.98
13.472453117370605,-12.14,-1.63,-1.77,12.37
13.481289148330688,-5.63,-2.26,-2.83,6.69
13.491337299346924,-3.0,-3.75,-3.28,5.81
13.5015230178833,-1.31,-0.03,8.94,9.03
13.511635303497314,0.44,9.03,10.95,14.19
13.522890090942383,6.74,25.31,3.77,26.46
13.531826972961426,5.94,10.24,-3.41,12.31
13.550544261932373,-2.42,-2.79,-0.48,3.72
13.552674293518066,-7.61,1.76,0.62,7.83
13.562019109725952,-10.36,0.49,0.18,10.37
13.573254108428955,-8.84,-2.34,-1.48,9.26
13.58220911026001,-6.24,0.54,-1.22,6.38
13.592184066772461,-6.09,1.02,-10.1,11.83
13.602392196655273,-4.8,-5.55,-13.58,15.43
13.61237096786499,-3.44,-3.75,-0.34,5.1
13.623857975006104,-4.94,-1.82,7.7,9.32
13.632606029510498,-5.95,-1.6,-1.09,6.25
13.65044116973877,-5.04,-2.81,-3.03,6.51
13.652513980865479,-3.33,-2.52,-1.55,4.45
13.662773132324219,-1.7,-0.54,1.09,2.09
13.6741361618042,-0.81,-0.06,0.27,0.85
13.683067321777344,0.06,-0.3,-0.77,0.82
13.693327188491821,1.08,0.41,0.28,1.18
13.7031831741333,1.14,0.55,-0.22,1.28
13.71336030960083,0.86,0.1,-1.42,1.66
13.724528312683105,0.69,0.04,-0.98,1.19
13.733435153961182,0.28,0.09,-0.04,0.29
13.749717235565186,-0.43,-0.29,-0.41,0.66
13.75353217124939,-0.71,-0.44,-0.74,1.11
13.763694286346436,-0.51,-0.22,-0.23,0.6
13.775005102157593,-0.11,-0.05,-0.11,0.16
13.783842086791992,0.31,0.14,-0.11,0.35
13.793620109558105,0.62,0.27,0.37,0.77
13.80400013923645,0.61,0.35,0.46,0.84
13.814011096954346,0.3,0.23,-0.12,0.39
13.825484275817871,0.16,0.07,-0.42,0.45
13.83422327041626,0.11,-0.01,-0.63,0.63
13.849750995635986,0.28,0.16,-0.33,0.46
13.854485034942627,0.56,0.5,0.12,0.76
13.864463090896606,0.64,0.61,0.3,0.93
13.875678062438965,0.66,0.46,0.12,0.81
13.884610176086426,0.48,0.5,0.4,0.8
13.894500255584717,0.54,0.68,1.19,1.47
13.904754161834717,0.09,0.13,-0.48,0.5
13.914738178253174,-0.17,0.14,-0.6,0.63
13.926696300506592,0.13,0.3,0.29,0.43
13.934938192367554,0.12,0.53,-0.02,0.54
13.94987416267395,0.24,0.73,-0.32,0.83
13.95495319366455,0.26,0.87,-0.47,1.02
13.965211153030396,0.57,1.29,-0.56,1.51
13.976744174957275,1.32,1.98,0.62,2.45
13.985390186309814,1.33,1.79,0.87,2.39
13.995487213134766,1.52,2.2,0.56,2.73
14.005717277526855,1.7,2.45,1.47,3.32
14.015737056732178,1.39,2.26,1.38,2.99
14.027684211730957,0.79,1.72,0.41,1.93
14.03591012954712,0.54,1.68,-0.14,1.77
14.051344156265259,0.15,1.77,-0.26,1.79
14.0559561252594,0.12,1.97,-0.42,2.01
14.066189289093018,0.55,2.37,-0.89,2.59
14.077795028686523,1.11,2.97,-1.28,3.41
14.086390018463135,1.76,4.05,-1.09,4.54
14.096220016479492,2.23,5.54,-0.43,5.98
14.106415271759033,2.97,5.62,0.19,6.35
14.116517066955566,3.2,6.14,0.35,6.93
14.128405094146729,2.74,8.24,0.42,8.69
14.13810110092163,3.15,7.88,0.74,8.51
14.151860237121582,3.53,7.91,0.39,8.67
14.156679153442383,3.2,9.9,-1.12,10.46
14.166882038116455,3.54,9.78,-0.91,10.44
14.178141117095947,4.35,9.64,1.12,10.63
14.18709421157837,5.05,11.43,1.51,12.58
14.19709825515747,5.64,11.87,0.46,13.14
14.207235097885132,6.01,12.31,1.06,13.73
14.217345237731934,6.19,13.98,1.29,15.34
14.228609085083008,7.34,12.88,1.44,14.89
14.238828182220459,8.69,9.95,0.27,13.21
14.253076076507568,10.24,5.34,-2.65,11.84
14.257549285888672,12.55,1.8,-1.24,12.73
14.26763105392456,12.19,3.71,10.36,16.42
14.278797149658203,6.93,3.88,3.94,8.86
14.287792205810547,6.66,2.28,0.58,7.06
14.297985076904297,9.29,0.23,5.35,10.72
14.308094024658203,10.23,-1.05,4.65,11.28
14.318143129348755,9.65,-0.63,2.36,9.95
14.329874038696289,8.88,-0.3,2.68,9.28
14.33980917930603,8.08,-0.32,3.5,8.81
14.354833126068115,7.45,-0.17,4.16,8.53
14.358388185501099,6.98,0.3,4.35,8.23
14.368540287017822,6.49,0.7,4.05,7.68
14.379767179489136,6.0,0.77,4.14,7.33
14.388611316680908,5.4,0.65,4.06,6.78
14.39870810508728,4.83,0.4,3.55,6.0
14.408915042877197,4.57,0.01,3.21,5.58
14.418896198272705,4.46,-0.34,3.13,5.45
14.430386066436768,4.16,-0.42,2.84,5.05
14.440911293029785,3.65,-0.41,2.33,4.34
14.455604076385498,3.16,-0.3,2.08,3.79
14.459167003631592,2.79,0.07,1.77,3.3
14.46925401687622,2.3,0.46,1.25,2.65
14.480550289154053,1.65,0.82,0.72,1.97
14.489531993865967,0.8,1.31,0.15,1.54
14.499541282653809,-0.21,1.89,-0.46,1.95
14.51014518737793,-1.29,2.17,-0.97,2.7
14.519710063934326,-2.27,2.34,-1.32,3.51
14.53123426437378,-2.83,2.55,-1.31,4.02
14.53986120223999,-2.92,3.04,-1.57,4.49
14.554383277893066,-2.84,3.92,-1.93,5.21
14.560258150100708,-3.21,5.35,-2.41,6.68
14.570190191268921,-4.03,6.8,-3.56,8.66
14.581613063812256,-4.89,7.66,-4.08,9.96
14.590424060821533,-5.85,8.37,-4.07,10.99
14.600415229797363,-6.52,8.6,-4.1,11.54
14.610421180725098,-7.04,8.23,-4.83,11.85
14.62062931060791,-7.64,7.7,-6.03,12.41
14.632274150848389,-7.95,7.22,-7.05,12.84
14.640803098678589,-8.38,6.61,-8.16,13.43
14.655944108963013,-8.76,5.7,-8.48,13.45
14.660758018493652,-9.34,4.8,-7.44,12.86
14.671038150787354,-10.35,3.45,-5.76,12.33
14.682172298431396,-11.89,1.25,-3.84,12.55
14.6911301612854,-13.87,-1.77,-1.88,14.1
14.701231002807617,-15.59,-4.66,-2.26,16.42
14.711196184158325,-16.57,-6.47,-4.24,18.28
14.72133731842041,-17.24,-7.66,-4.46,19.38
14.732743263244629,-17.05,-6.82,-4.04,18.8
14.741628170013428,-12.33,-3.58,-1.56,12.93
14.756339073181152,-6.1,-4.66,-4.45,8.87
14.761589050292969,-4.79,-4.44,-5.86,8.77
14.77177619934082,-4.39,-0.18,5.42,6.97
14.78307819366455,-2.08,11.6,13.52,17.93
14.792054176330566,2.6,26.35,7.11,27.41
14.802008152008057,4.34,16.09,-7.34,18.2
14.812134265899658,-1.49,-0.89,-5.13,5.41
14.822216987609863,-5.92,0.99,-2.86,6.64
14.833689212799072,-8.79,-1.42,1.45,9.02
14.842448234558105,-7.49,0.75,0.8,7.56
14.857087135314941,-6.81,0.11,-11.32,13.21
14.862495183944702,-6.5,-6.53,-11.19,14.49
14.872617244720459,-6.61,-5.9,-0.84,8.89
14.883981227874756,-8.16,-3.65,6.47,11.03
14.89321231842041,-7.95,-2.64,-2.34,8.69
14.902835130691528,-5.15,-3.15,-4.07,7.28
14.91295313835144,-2.08,-1.8,-0.8,2.86
14.923082113265991,-0.15,0.7,1.52,1.68
14.935817241668701,0.33,0.19,-0.58,0.69
14.950730085372925,1.24,0.04,-1.11,1.66
14.957430124282837,1.85,0.81,-0.11,2.02
14.963362216949463,1.49,0.54,-0.56,1.68
14.973358154296875,1.03,0.29,-1.02,1.47
14.984691143035889,0.68,0.09,-0.72,0.99
14.9937162399292,-0.04,-0.17,-0.48,0.51
15.003678321838379,-0.57,-0.33,-0.57,0.87
15.013776302337646,-0.61,-0.36,-0.66,0.96
15.023774147033691,-0.19,-0.14,-0.18,0.29
15.036695003509521,0.23,0.2,0.28,0.41
15.05102825164795,0.5,0.32,0.39,0.71
15.057414054870605,0.64,0.25,0.21,0.71
15.064159154891968,0.63,0.24,0.28,0.73
15.074227094650269,0.46,0.19,0.1,0.5
15.085581302642822,0.24,0.04,-0.44,0.5
15.094541072845459,0.19,0.01,-0.44,0.47
15.104376316070557,-0.03,0.08,-0.16,0.18
15.114552974700928,0.14,0.21,-0.07,0.26
15.124619007110596,0.53,0.25,-0.22,0.62
15.137180089950562,0.82,0.46,0.07,0.94
15.150212287902832,0.7,0.5,0.51,1.0
15.156533241271973,0.45,0.47,0.66,0.92
15.164896011352539,0.17,0.41,0.72,0.84
15.17502498626709,-0.21,0.04,0.04,0.21
15.186408996582031,-0.59,-0.13,-0.72,0.93
15.195183277130127,-0.5,-0.12,-0.4,0.65
15.205212116241455,-0.34,0.02,-0.2,0.39
15.215270042419434,-0.07,0.42,-0.36,0.55
15.225351095199585,0.4,0.99,-0.39,1.13
15.237936019897461,0.94,1.38,-0.1,1.67
15.250303268432617,1.61,1.85,0.75,2.56
15.256322145462036,1.83,2.23,1.47,3.23
15.265648126602173,1.52,1.99,1.58,2.96
15.275794982910156,0.75,1.26,0.42,1.52
15.28712797164917,0.25,1.3,-0.49,1.41
15.295973300933838,-0.04,1.3,-0.75,1.5
15.305975198745728,-0.06,1.25,-1.33,1.82
15.31629228591919,0.25,1.43,-1.66,2.2
15.326719284057617,0.82,2.14,-1.22,2.59
15.337600231170654,1.57,3.15,-0.33,3.53
15.350301265716553,1.98,4.16,0.11,4.6
15.356712102890015,1.89,5.25,0.15,5.58
15.366470098495483,2.06,5.53,0.02,5.9
15.37698221206665,2.41,5.69,-0.09,6.17
15.387747287750244,2.39,7.31,-0.27,7.69
15.396867275238037,2.63,8.3,-0.65,8.73
15.406790256500244,3.59,8.56,-0.98,9.33
15.41701602935791,4.51,9.01,-1.33,10.16
15.427061080932617,4.58,9.17,-1.83,10.41
15.43842601776123,4.47,10.37,-0.53,11.3
15.450736045837402,5.23,10.96,0.09,12.14
15.457162141799927,6.21,10.94,-1.04,12.62
15.46737003326416,6.58,10.68,0.21,12.54
15.477280139923096,6.79,10.93,1.15,12.91
15.48869800567627,6.78,10.83,-0.69,12.79
15.497762203216553,7.37,8.62,-2.29,11.57
15.507760047912598,8.58,5.64,-2.49,10.56
15.517836093902588,9.17,1.65,-3.34,9.89
15.527719020843506,9.23,1.88,7.1,11.79
15.539157152175903,4.67,3.16,6.98,8.97
15.550742149353027,4.71,1.05,0.88,4.9
15.558032035827637,9.34,-0.44,4.02,10.17
15.568212985992432,11.38,-0.7,4.0,12.08
15.578291177749634,10.69,0.26,1.71,10.82
15.58955430984497,9.4,0.4,1.65,9.55
15.598477125167847,8.32,-0.3,2.59,8.71
15.608612060546875,7.38,-0.81,3.39,8.16
15.618717193603516,6.63,-0.93,3.44,7.52
15.628743171691895,6.1,-0.88,3.1,6.89
15.640133142471313,5.75,-0.71,3.24,6.63
15.650450229644775,5.37,-0.37,3.41,6.37
15.65880823135376,4.96,-0.06,3.3,5.95
15.668951988220215,4.75,0.09,3.18,5.71
15.679071187973022,4.79,0.13,3.16,5.73
15.690410137176514,4.87,0.09,3.15,5.8
15.699259281158447,4.71,0.02,2.74,5.44
15.70926308631897,4.17,0.0,2.12,4.67
15.719457149505615,3.27,0.0,1.55,3.61
15.730671167373657,2.37,-0.07,1.43,2.76
15.741051197052002,1.67,0.09,1.41,2.18
15.750387191772461,1.21,0.46,1.35,1.87
15.760087966918945,0.88,0.98,1.14,1.74
15.769818305969238,0.55,1.57,0.71,1.8
15.779938220977783,0.15,2.15,0.5,2.21
15.79126501083374,-0.38,2.68,0.34,2.72
15.800234317779541,-0.95,3.04,-0.02,3.18
15.810299158096313,-1.49,3.25,-0.42,3.59
15.820199012756348,-1.95,3.46,-0.93,4.07
15.831611156463623,-2.32,3.73,-1.41,4.61
15.841612100601196,-2.77,4.26,-1.89,5.42
15.850957155227661,-3.37,5.09,-2.7,6.67
15.860361099243164,-4.15,5.8,-3.21,7.82
15.87060809135437,-4.9,6.45,-3.34,8.76
15.880667209625244,-5.77,6.99,-3.34,9.65
15.892089128494263,-6.45,7.06,-3.15,10.06
15.900920152664185,-7.01,6.52,-3.47,10.18
15.910880088806152,-7.57,5.76,-4.7,10.61
15.921163082122803,-7.87,5.14,-5.19,10.73
15.932600021362305,-8.24,4.75,-5.2,10.83
15.950690269470215,-8.49,4.24,-6.25,11.36
15.952946186065674,-8.63,3.48,-7.2,11.76
15.961609125137329,-9.12,2.54,-6.41,11.43
15.971633195877075,-10.24,1.25,-4.31,11.18
15.98170018196106,-12.05,-0.38,-1.87,12.2
15.993590116500854,-14.01,-2.06,-0.8,14.18
16.00191617012024,-15.25,-3.68,-2.04,15.81
16.011959075927734,-15.9,-5.21,-3.6,17.11
16.022083282470703,-16.34,-6.67,-3.54,18.0
16.033257007598877,-15.68,-6.98,-2.85,17.39
16.050589084625244,-10.66,-2.52,0.48,10.96
16.05265712738037,-4.15,-2.93,-1.63,5.33
16.062249183654785,-1.1,-2.52,0.92,2.89
16.0723819732666,1.25,1.72,9.16,9.4
16.082507133483887,1.4,10.32,2.77,10.77
16.093937158584595,11.29,33.0,3.22,35.02
16.102604150772095,7.11,6.83,3.13,10.34
16.11272621154785,-1.96,-4.79,-2.47,5.73
16.122830152511597,-5.33,2.69,-3.67,7.0
16.132858276367188,-8.32,0.95,1.87,8.58
16.15146827697754,-7.31,1.97,-0.24,7.57
16.15354299545288,-6.43,1.18,-9.4,11.44
16.163032054901123,-6.82,-6.69,-13.66,16.66
16.173198223114014,-7.47,-8.29,-3.84,11.8
16.18329906463623,-9.03,-5.12,5.99,11.98
16.19497299194336,-9.74,-3.23,0.69,10.28
16.20347809791565,-7.75,-3.43,-2.18,8.75
16.213382244110107,-4.84,-3.12,-1.97,6.08
16.22347402572632,-1.99,-0.73,-0.36,2.15
16.233588218688965,0.22,0.38,0.99,1.08
16.252016067504883,0.91,0.27,-0.35,1.01
16.254098176956177,1.5,0.62,-0.31,1.65
16.263858318328857,1.7,0.75,-0.13,1.86
16.273848056793213,1.13,0.38,-0.62,1.34
16.284077167510986,0.54,0.08,-0.88,1.03
16.29511308670044,0.16,-0.03,-0.65,0.67
16.304197311401367,-0.35,-0.33,-0.91,1.02
16.3142352104187,-0.47,-0.26,-0.58,0.79
16.324406147003174,-0.33,-0.1,-0.33,0.47
16.33447027206421,-0.11,-0.18,-0.6,0.63
16.351945161819458,0.54,0.3,0.53,0.81
16.354525089263916,0.86,0.38,0.37,1.01
16.36473798751831,0.75,0.33,0.08,0.82
16.37467098236084,0.82,0.28,0.16,0.88
16.384896278381348,0.63,0.24,-0.19,0.7
16.39607310295105,0.27,0.06,-0.35,0.44
16.404942989349365,0.25,0.04,0.02,0.25
16.41504716873169,0.22,0.11,0.14,0.28
16.425251007080078,0.15,0.25,0.5,0.57
16.43519616127014,0.12,0.31,0.83,0.89
16.452442169189453,0.31,0.1,0.44,0.54
16.455339193344116,-0.01,-0.12,-0.62,0.63
16.46545720100403,0.05,0.1,0.2,0.22
16.47549819946289,0.01,0.16,0.33,0.36
16.48580312728882,-0.18,0.14,-0.23,0.32
16.49721097946167,-0.13,0.15,-0.04,0.2
16.505901098251343,-0.37,-0.08,-0.68,0.77
16.515942096710205,-0.21,0.3,-0.12,0.38
16.534951210021973,0.2,0.47,0.34,0.61
16.537036180496216,0.24,0.63,-0.13,0.68
16.547356128692627,0.37,0.97,-0.28,1.07
16.556200981140137,0.73,1.45,-0.07,1.62
16.56631326675415,1.2,2.24,-0.01,2.54
16.576714992523193,1.91,3.28,1.3,4.01
16.586519241333008,2.01,3.03,2.0,4.14
16.597893238067627,1.74,2.95,1.02,3.57
16.60664129257202,1.46,2.87,0.84,3.32
16.61671209335327,0.99,2.66,0.63,2.9
16.62831401824951,0.52,2.57,0.46,2.66
16.636975288391113,0.18,2.62,-0.1,2.62
16.651610136032104,0.33,2.94,-0.58,3.01
16.6570463180542,0.95,3.4,-1.14,3.7
16.667113304138184,1.48,4.54,-1.31,4.95
16.677170276641846,2.11,6.0,-0.89,6.42
16.687328100204468,2.94,7.39,-0.28,7.95
16.698605060577393,3.38,9.7,0.35,10.27
16.707473278045654,4.41,9.1,1.02,10.16
16.71748924255371,4.37,10.36,0.99,11.28
16.728652000427246,4.0,13.14,1.06,13.77
16.73821496963501,4.97,12.67,1.99,13.75
16.75117015838623,5.27,13.45,1.88,14.56
16.758018016815186,5.61,13.2,0.96,14.37
16.767893314361572,5.98,12.89,-0.51,14.21
16.77779531478882,6.91,12.29,-1.22,14.15
16.788036108016968,7.63,12.59,-0.42,14.72
16.799503087997437,8.38,11.84,0.84,14.52
16.80823016166687,9.6,9.25,-0.33,13.33
16.818313121795654,11.09,5.94,-2.53,12.83
16.829567193984985,13.4,1.54,-3.32,13.89
16.838484287261963,13.8,2.13,6.68,15.47
16.851426124572754,8.51,1.6,5.93,10.49
16.85858416557312,5.64,-0.85,-1.41,5.87
16.86871314048767,7.08,-2.26,2.15,7.73
16.878806114196777,10.08,-4.38,8.26,13.74
16.88889217376709,10.76,-4.88,6.7,13.58
16.90023708343506,9.44,-3.52,2.39,10.35
16.909024238586426,8.36,-2.69,1.67,8.93
16.919157028198242,7.46,-2.31,3.05,8.38
16.933319091796875,6.84,-1.95,4.41,8.36
16.93922710418701,6.32,-1.67,4.28,7.81
16.950568199157715,5.66,-1.58,3.33,6.75
16.959375143051147,4.85,-1.49,3.11,5.95
16.969572067260742,4.02,-1.21,3.43,5.42
16.9796199798584,3.44,-0.66,3.46,4.92
16.989776134490967,3.23,-0.04,3.25,4.58
17.00108313560486,3.12,0.39,2.79,4.2
17.010289192199707,2.81,0.52,2.37,3.71
17.019984245300293,2.18,0.61,2.23,3.17
17.033310174942017,1.39,0.84,2.02,2.59
17.040085315704346,0.64,1.1,1.83,2.22
17.05135726928711,-0.03,1.47,1.56,2.14
17.060405254364014,-0.72,1.98,1.04,2.34
17.070414066314697,-1.35,2.61,0.34,2.95
17.080509185791016,-1.92,3.26,-0.42,3.8
17.090530157089233,-2.45,3.98,-1.2,4.82
17.101821184158325,-3.06,4.88,-1.75,6.02
17.110586166381836,-3.7,6.05,-2.09,7.39
17.120720148086548,-4.52,7.89,-3.15,9.62
17.133677005767822,-5.71,9.7,-4.87,12.26
17.141327142715454,-6.84,9.83,-4.45,12.77
17.152119159698486,-8.36,9.53,-3.33,13.1
17.160949230194092,-9.4,8.42,-2.93,12.95
17.171151161193848,-9.79,7.34,-4.47,13.02
17.181379318237305,-9.63,6.73,-6.62,13.48
17.191413164138794,-9.31,5.82,-7.92,13.53
17.202527046203613,-9.33,4.48,-9.23,13.86
17.211381196975708,-9.59,2.82,-9.98,14.12
17.221582174301147,-10.11,1.19,-8.81,13.46
17.234276294708252,-11.26,-0.58,-5.81,12.68
17.241737127304077,-13.1,-2.65,-2.81,13.65
17.252888202667236,-14.71,-4.24,-2.3,15.48
17.26178503036499,-15.43,-5.06,-3.29,16.56
17.271949291229248,-15.75,-5.58,-4.0,17.18
17.282095193862915,-14.71,-5.32,-4.42,16.25
17.292176246643066,-9.57,-1.66,-1.52,9.83
17.303531169891357,-3.98,-2.17,-3.08,5.48
17.312373161315918,-2.45,-4.03,-5.81,7.48
17.32343816757202,-2.8,-2.89,3.54,5.35
17.333343982696533,-2.83,0.69,7.76,8.28
17.34247922897339,-0.5,10.59,0.6,10.61
17.35376501083374,10.9,31.63,1.36,33.48
17.362718105316162,4.02,1.63,1.42,4.56
17.372729301452637,-0.4,0.28,-4.34,4.36
17.382917165756226,-2.23,7.92,-7.02,10.81
17.393429279327393,-4.84,5.59,-0.45,7.4
17.4046630859375,-6.73,-0.81,-11.65,13.47
17.413201093673706,-9.44,-8.26,-3.3,12.97
17.424498081207275,-11.8,-10.09,7.11,17.07
17.433284282684326,-10.75,-5.84,-6.01,13.63
17.44370126724243,-9.47,-3.37,-3.38,10.6
17.45443105697632,-6.78,-2.94,2.56,7.82
17.463537216186523,-3.77,-1.08,0.14,3.92
17.47343397140503,-1.9,-0.75,-0.46,2.09
17.483664989471436,-0.45,-0.51,-1.3,1.46
17.493889093399048,1.15,0.36,-0.15,1.21
17.5051212310791,1.97,0.83,0.66,2.23
17.514024257659912,1.88,0.56,-0.82,2.12
17.525070190429688,1.73,0.4,-1.41,2.26
17.53405213356018,1.57,0.4,-1.17,1.99
17.543972969055176,0.95,0.3,-0.64,1.18
17.555371284484863,0.08,-0.06,-0.71,0.71
17.564406156539917,-0.45,-0.3,-0.72,0.9
17.574613094329834,-0.44,-0.29,-0.48,0.71
17.584537029266357,-0.04,-0.09,-0.27,0.28
17.594489097595215,0.31,0.09,-0.01,0.32
17.60616397857666,0.37,0.19,0.36,0.55
17.614801168441772,0.18,0.2,0.62,0.67
17.633718967437744,-0.17,0.0,0.1,0.19
17.635854244232178,-0.34,-0.21,-0.31,0.5
17.64495015144348,-0.29,-0.18,-0.23,0.41
17.656264305114746,0.02,-0.06,-0.13,0.14
17.66518497467041,0.47,0.15,0.05,0.49
17.675251007080078,0.57,0.25,0.07,0.62
17.68537998199463,0.52,0.2,0.0,0.55
17.695648193359375,0.45,0.27,0.13,0.54
17.707067012786865,0.58,0.36,0.37,0.77
17.715654134750366,0.58,0.37,0.35,0.77
17.725718021392822,0.29,0.17,0.11,0.35
17.735790252685547,-0.01,-0.07,-0.12,0.13
17.745827198028564,-0.27,-0.11,-0.12,0.31
17.757066249847412,-0.4,-0.22,-0.12,0.47
17.76591205596924,-0.3,-0.06,0.06,0.31
17.77613615989685,-0.18,0.33,0.5,0.62
17.786216259002686,0.05,0.42,1.04,1.12
17.79623031616211,0.13,0.43,0.88,0.98
17.807610034942627,0.13,0.37,0.41,0.56
17.816411018371582,0.18,0.37,0.44,0.6
17.833759307861328,0.0,0.51,0.28,0.58
17.836536169052124,0.13,0.83,0.15,0.85
17.84664297103882,0.57,1.07,0.32,1.25
17.858015060424805,0.82,1.12,0.15,1.39
17.866915225982666,0.94,1.36,-0.12,1.65
17.877161026000977,1.01,1.67,-0.26,1.96
17.887044191360474,1.16,1.89,-0.67,2.31
17.89708423614502,1.46,2.18,-1.14,2.86
17.908430099487305,1.66,2.66,-0.9,3.26
17.91718101501465,1.69,3.1,-0.16,3.53
17.934091091156006,1.75,3.48,0.66,3.95
17.937417030334473,1.43,3.68,1.07,4.09
17.94748020172119,0.82,3.6,0.58,3.73
17.958796977996826,0.56,3.69,-0.05,3.73
17.967616081237793,0.84,4.54,-0.08,4.61
17.977598190307617,1.24,6.68,0.22,6.79
17.987802028656006,1.62,9.7,0.13,9.83
17.99805212020874,2.7,10.35,0.51,10.7
18.009313106536865,3.87,10.46,0.97,11.19
18.018145084381104,4.98,10.91,1.25,12.05
18.033928155899048,5.06,13.02,1.19,14.01
18.038166046142578,5.72,13.55,0.82,14.73
18.048354148864746,7.25,11.64,0.44,13.72
18.060113191604614,7.57,11.68,1.12,13.96
18.068478107452393,8.01,11.61,0.19,14.1
18.078543186187744,8.57,10.88,0.44,13.85
18.088701248168945,8.78,9.03,0.91,12.62
18.098714113235474,9.74,4.53,-0.43,10.75
18.11037015914917,9.75,0.44,-2.96,10.19
18.120190143585205,9.55,-0.95,0.69,9.62
18.13305902481079,7.34,-0.57,7.11,10.23
18.13895606994629,3.73,-1.76,3.22,5.23
18.14911699295044,5.38,-2.13,4.02,7.04
18.160629272460938,9.17,-2.5,8.21,12.55
18.16923213005066,11.09,-2.62,7.57,13.68
18.17936110496521,10.67,-0.93,5.04,11.83
18.189407110214233,9.65,0.25,4.7,10.73
18.199594974517822,8.63,0.24,5.4,10.18
18.211381196975708,7.65,-0.04,5.6,9.48
18.221054077148438,6.85,-0.4,4.85,8.4
18.234230041503906,6.21,-0.78,3.89,7.36
18.23979902267456,5.58,-0.96,3.48,6.64
18.2498722076416,4.94,-0.77,3.4,6.04
18.26174306869507,4.29,-0.27,3.12,5.31
18.27000904083252,3.75,0.34,2.79,4.68
18.280173301696777,3.33,0.71,2.51,4.23
18.290287017822266,2.98,0.68,2.36,3.86
18.300410270690918,2.44,0.54,2.27,3.37
18.311933040618896,1.72,0.45,2.13,2.77
18.3218092918396,1.14,0.42,2.05,2.38
18.336236000061035,0.81,0.6,1.84,2.09
18.34067416191101,0.62,0.97,1.45,1.85
18.350975036621094,0.34,1.48,0.98,1.8
18.361952304840088,-0.08,2.03,0.48,2.08
18.37089729309082,-0.58,2.51,0.12,2.57
18.381002187728882,-1.04,2.89,-0.18,3.07
18.390981197357178,-1.58,3.46,-0.64,3.85
18.401238203048706,-2.09,4.24,-0.84,4.8
18.412424087524414,-2.69,5.39,-0.73,6.06
18.422839164733887,-3.68,6.96,-2.5,8.26
18.437424182891846,-4.74,7.85,-3.39,9.77
18.441434144973755,-5.79,8.97,-2.07,10.87
18.45211410522461,-6.81,9.83,-1.22,12.02
18.46281409263611,-7.26,9.7,-2.45,12.36
18.47161626815796,-7.44,9.41,-5.62,13.24
18.481746196746826,-7.23,8.42,-7.92,13.63
18.491886138916016,-7.31,7.24,-10.01,14.35
18.502182006835938,-7.58,5.47,-11.91,15.14
18.51338815689087,-8.1,3.52,-12.09,14.97
18.522207260131836,-9.05,1.48,-9.62,13.29
18.536256313323975,-11.15,-1.45,-5.85,12.67
18.54227924346924,-15.17,-4.9,-0.56,15.95
18.55239725112915,-18.14,-6.71,1.0,19.36
18.563817024230957,-18.15,-7.0,-3.17,19.7
18.57258915901184,-17.28,-7.87,-5.76,19.84
18.58268404006958,-15.9,-7.53,-6.02,18.59
18.592695236206055,-10.79,-3.15,-2.75,11.57
18.60290217399597,-4.96,-5.32,-2.38,7.65
18.614272117614746,-2.92,-4.19,0.32,5.11
18.62302303314209,-2.42,0.17,4.49,5.1
18.637128114700317,-1.44,5.55,3.87,6.91
18.642954111099243,0.9,11.91,2.44,12.19
18.65306806564331,8.23,27.93,2.46,29.22
18.664576053619385,5.68,9.85,-5.22,12.51
18.67336916923523,-0.8,-5.02,-7.14,8.76
18.683478116989136,-4.37,-0.42,0.38,4.4
18.69388198852539,-6.19,4.33,6.47,9.94
18.703660011291504,-5.44,4.73,-7.59,10.46
18.715219020843506,-4.85,-4.62,-10.35,12.32
18.723807096481323,-3.83,-6.39,-4.82,8.87
18.737717151641846,-5.18,-3.43,0.48,6.23
18.743959188461304,-7.05,-2.08,1.24,7.45
18.754133224487305,-6.77,-2.54,-0.72,7.26
18.76538109779358,-5.26,-3.25,-1.38,6.33
18.77412509918213,-3.43,-1.94,-0.17,3.94
18.784296989440918,-1.69,-0.48,-0.04,1.75
18.79408311843872,-0.22,-0.26,-0.86,0.92
18.804519176483154,1.08,0.34,-0.32,1.17
18.816040992736816,1.53,0.7,-0.31,1.71
18.824608087539673,1.42,0.42,-0.93,1.74
18.83845329284668,1.17,0.29,-0.83,1.46
18.84457302093506,0.57,0.19,-0.5,0.78
18.854673147201538,-0.04,-0.05,-0.39,0.39
18.86618208885193,-0.44,-0.33,-0.34,0.64
18.874853134155273,-0.58,-0.37,-0.53,0.86
18.8851420879364,-0.44,-0.24,-0.54,0.73
18.895101070404053,-0.16,-0.03,-0.17,0.23
18.90528106689453,0.0,0.13,0.26,0.29
18.91791820526123,0.06,0.11,0.35,0.37
18.925457000732422,0.02,-0.04,-0.08,0.09
18.938939094543457,0.04,-0.07,-0.09,0.12
18.945565223693848,0.16,-0.01,-0.07,0.17
18.95565128326416,0.23,0.07,-0.22,0.32
18.966950178146362,0.3,0.17,-0.2,0.39
18.975828170776367,0.47,0.33,0.06,0.57
18.985802173614502,0.47,0.33,0.26,0.63
18.995946168899536,0.39,0.24,0.3,0.54
19.006068229675293,0.26,0.28,0.34,0.51
19.01870107650757,0.09,0.18,0.02,0.2
19.026262283325195,0.05,0.22,-0.17,0.28
19.039955139160156,0.14,0.25,-0.02,0.28
19.04647922515869,0.05,0.2,-0.3,0.36
19.056470155715942,0.19,0.28,-0.58,0.67
19.067869186401367,0.49,0.53,-0.49,0.87
19.077081203460693,0.67,0.71,-0.27,1.01
19.086794137954712,0.74,1.04,0.05,1.27
19.096793174743652,0.93,1.5,0.21,1.77
19.10687828063965,1.09,1.42,0.18,1.79
19.11958122253418,1.18,1.48,0.16,1.89
19.134500980377197,1.24,2.03,0.7,2.47
19.14128613471985,1.0,1.78,0.76,2.17
19.147278308868408,0.91,1.75,0.03,1.97
19.157215118408203,0.88,1.84,0.18,2.04
19.16872501373291,0.76,1.73,0.41,1.93
19.177406311035156,0.58,1.67,-0.04,1.76
19.187458038330078,0.39,1.87,-0.67,2.02
19.197543144226074,0.29,2.13,-1.12,2.42
19.20764398574829,0.38,2.35,-1.46,2.79
19.220744132995605,0.67,3.14,-1.19,3.42
19.23450803756714,1.37,4.55,-0.48,4.77
19.24153709411621,2.07,5.93,-0.11,6.28
19.24802827835083,2.42,8.58,0.23,8.91
19.25806999206543,3.4,9.29,0.77,9.92
19.269445180892944,4.05,9.7,1.03,10.56
19.27826499938965,4.42,10.95,1.55,11.9
19.28831911087036,5.09,10.24,1.13,11.49
19.298447132110596,5.06,10.33,-0.41,11.51
19.308578968048096,5.42,9.6,-0.85,11.05
19.319863319396973,5.97,9.91,0.24,11.57
19.33376407623291,6.56,10.42,0.61,12.32
19.340100288391113,7.36,9.51,0.12,12.02
19.348734140396118,7.63,9.61,-0.48,12.28
19.358825206756592,7.81,8.82,-0.55,11.79
19.370025157928467,7.93,6.52,-0.35,10.27
19.37906813621521,8.32,1.82,-2.7,8.93
19.389077186584473,8.78,-1.69,-2.03,9.16
19.39924716949463,7.86,-1.5,9.43,12.36
19.40934419631958,3.86,-1.4,5.77,7.08
19.420595169067383,4.49,-1.14,1.37,4.83
19.434592247009277,8.63,-1.71,5.14,10.18
19.441002130508423,11.21,-2.93,6.06,13.07
19.44963026046753,11.11,-1.81,3.47,11.77
19.45959711074829,9.93,-0.42,2.02,10.14
19.47081232070923,8.91,-0.35,2.37,9.22
19.479790210723877,7.92,-0.61,3.46,8.66
19.489838123321533,6.94,-0.45,3.71,7.88
19.50009298324585,5.98,-0.3,3.01,6.7
19.510661125183105,5.14,-0.51,2.83,5.88
19.521406173706055,4.42,-0.75,3.21,5.51
19.53398323059082,3.82,-0.85,3.36,5.15
19.540332317352295,3.42,-0.7,3.15,4.7
19.55040216445923,3.16,-0.45,2.9,4.31
19.560561180114746,2.96,-0.31,2.62,3.96
19.57186508178711,2.62,-0.17,2.04,3.32
19.58064913749695,2.14,0.13,1.63,2.69
19.5906662940979,1.57,0.54,1.29,2.1
19.600884199142456,0.96,0.96,0.94,1.65
19.610884189605713,0.35,1.34,0.71,1.55
19.622241973876953,-0.22,1.8,0.46,1.87
19.633885145187378,-0.85,2.35,0.17,2.5
19.64112615585327,-1.59,2.74,-0.16,3.17
19.65118908882141,-2.33,2.86,-0.55,3.72
19.6613712310791,-2.91,2.79,-0.77,4.1
19.67261815071106,-3.21,2.84,-0.83,4.36
19.681588172912598,-3.25,3.2,-1.04,4.67
19.691673278808594,-3.21,3.88,-1.49,5.25
19.70172619819641,-3.25,4.64,-2.29,6.11
19.71303701400757,-3.52,5.2,-3.02,6.96
19.72314214706421,-3.96,5.52,-3.08,7.45
19.734154224395752,-4.42,5.64,-2.83,7.7
19.741923093795776,-4.77,5.51,-3.13,7.93
19.75218915939331,-5.07,5.23,-4.22,8.41
19.762226104736328,-5.42,5.05,-5.28,9.09
19.773460149765015,-5.43,4.69,-5.65,9.13
19.78233814239502,-5.69,4.35,-6.09,9.4
19.79240322113037,-6.15,4.05,-7.06,10.2
19.802451133728027,-6.55,3.64,-7.36,10.5
19.814051151275635,-7.01,2.78,-6.57,10.0
19.82403016090393,-7.71,1.94,-5.76,9.81
19.834148168563843,-8.71,1.18,-4.27,9.77
19.842710971832275,-9.79,0.23,-2.25,10.04
19.85297417640686,-10.99,-0.87,-0.98,11.06
19.86296319961548,-11.95,-1.96,-1.13,12.16
19.87442922592163,-12.33,-2.83,-2.01,12.8
19.883225202560425,-12.31,-3.35,-2.44,12.98
19.893677234649658,-11.42,-3.22,-2.35,12.09
19.9033203125,-9.74,-2.55,-1.67,10.2
19.914878129959106,-8.25,-2.19,-2.21,8.81
19.92502498626709,-5.61,-0.52,0.28,5.64
19.935073137283325,-1.32,-0.22,0.34,1.38
19.94408130645752,0.26,-1.42,0.27,1.46
19.953829288482666,0.99,-0.05,9.6,9.65
19.963866233825684,1.14,5.59,5.05,7.61
19.97527503967285,8.06,22.88,-0.91,24.27
19.983973026275635,5.74,7.0,-3.73,9.79
19.99410915374756,-0.07,-6.75,3.15,7.44
20.004112243652344,-1.61,1.26,1.64,2.62
20.015756130218506,-1.73,12.11,-0.6,12.24
20.025561094284058,-2.97,10.13,-2.65,10.88
20.034813165664673,-3.98,-0.54,-13.59,14.17
20.04421615600586,-4.18,-5.84,-15.19,16.8
20.054428100585938,-6.79,-7.99,-1.42,10.58
20.064680099487305,-9.64,-6.78,12.79,17.39
20.075873136520386,-10.65,-3.19,-2.23,11.33
20.08501410484314,-9.6,-3.6,-1.49,10.36
20.094778060913086,-6.87,-3.73,-0.32,7.82
20.104873180389404,-4.28,-1.96,0.18,4.71
20.11857318878174,-1.34,-0.17,0.27,1.37
20.126164197921753,0.71,-0.01,-0.72,1.01
20.135141134262085,1.92,0.65,-0.16,2.03
20.14526605606079,2.36,1.1,0.4,2.63
20.155248165130615,1.71,0.57,-0.87,2.0
20.16538906097412,0.93,0.07,-2.14,2.33
20.177231311798096,0.87,0.1,-1.35,1.6
20.185603141784668,0.6,0.13,-0.66,0.9
20.195746183395386,-0.09,-0.11,-0.84,0.85
20.20571231842041,-0.12,-0.14,-0.48,0.51
20.215928077697754,0.33,0.13,0.18,0.39
20.234129190444946,0.63,0.35,0.62,0.95
20.236207008361816,0.52,0.32,0.72,0.94
20.24605703353882,0.49,0.3,0.85,1.02
20.25601625442505,0.39,0.3,0.85,0.98
20.266175270080566,-0.1,-0.07,-0.39,0.4
20.27799415588379,-0.35,-0.21,-0.65,0.76
20.286394119262695,-0.21,-0.17,-0.17,0.31
20.29642915725708,0.3,0.11,0.38,0.49
20.306519985198975,0.45,0.3,0.71,0.89
20.316657066345215,0.26,0.29,0.74,0.83
20.334758281707764,0.18,0.28,0.65,0.73
20.33669114112854,0.05,-0.01,-0.1,0.11
20.346867084503174,-0.29,-0.14,-0.64,0.71
20.35693120956421,-0.35,-0.15,-0.3,0.48
20.36695098876953,-0.29,-0.22,-0.4,0.54
20.378559112548828,-0.25,-0.23,-0.45,0.56
20.387193202972412,-0.19,-0.2,-0.17,0.32
20.397356033325195,-0.09,0.08,0.32,0.34
20.40743613243103,-0.16,0.15,0.57,0.61
20.417522192001343,-0.28,0.1,0.12,0.32
20.43606424331665,-0.2,0.21,-0.16,0.33
20.438193321228027,0.01,0.44,0.0,0.44
20.44766616821289,0.19,0.54,-0.22,0.61
20.45774221420288,0.76,0.83,-0.29,1.16
20.467862129211426,1.22,1.26,0.41,1.8
20.47896409034729,1.42,1.48,1.1,2.32
20.48801898956299,1.12,1.37,1.09,2.07
20.49816608428955,0.75,1.07,0.5,1.39
20.509650230407715,0.55,0.84,0.12,1.01
20.519167184829712,0.44,0.85,-0.14,0.96
20.529487133026123,0.52,1.01,-0.49,1.23
20.538472175598145,0.61,0.97,-0.68,1.33
20.548413276672363,0.77,1.16,-0.88,1.64
20.558545112609863,1.1,1.83,-0.52,2.19
20.56876516342163,1.32,2.19,0.15,2.56
20.580130100250244,1.33,2.28,0.51,2.68
20.58881711959839,1.28,2.35,0.55,2.73
20.598966121673584,0.95,2.55,0.44,2.75
20.616822242736816,0.62,2.7,0.13,2.77
20.619007110595703,0.68,2.64,-0.46,2.76
20.63042116165161,0.73,2.79,-0.9,3.02
20.6392502784729,1.23,3.98,-0.73,4.22
20.64930009841919,1.72,6.03,0.03,6.27
20.659388065338135,2.16,8.16,0.64,8.46
20.66946816444397,2.62,10.37,0.62,10.71
20.68087410926819,3.2,12.01,0.49,12.43
20.689609050750732,4.34,10.62,0.38,11.47
20.699777126312256,4.38,12.04,0.55,12.82
20.718262195587158,4.76,12.47,1.3,13.41
20.720242977142334,5.5,11.69,1.52,13.0
20.731093168258667,5.62,12.7,0.91,13.91
20.74008798599243,6.3,12.43,0.4,13.94
20.750157117843628,7.01,12.35,0.78,14.22
20.76076316833496,7.12,12.0,0.73,13.97
20.770345211029053,7.68,9.65,0.22,12.33
20.78175926208496,9.44,3.87,-0.26,10.2
20.790513038635254,10.2,-0.39,1.04,10.26
20.80058526992798,9.05,0.17,9.31,12.98
20.812361240386963,4.42,0.38,3.75,5.8
20.820806980133057,5.33,-0.73,1.74,5.65
20.83567523956299,9.97,-2.34,7.67,12.79
20.840898036956787,11.95,-2.5,6.83,13.98
20.850946187973022,10.91,-0.65,3.04,11.34
20.86092519760132,9.5,-0.3,2.96,9.95
20.871127128601074,8.18,-0.66,4.83,9.52
20.882628202438354,7.08,-0.73,5.94,9.27
20.89133310317993,6.23,-0.53,5.02,8.01
20.901348114013672,5.57,-0.57,3.72,6.72
20.917248249053955,4.94,-0.81,3.83,6.3
20.921535968780518,4.14,-0.73,4.44,6.11
20.932804107666016,3.31,-0.28,4.47,5.56
20.94174313545227,2.68,0.17,3.99,4.8
20.95175313949585,2.33,0.46,3.81,4.48
20.961833000183105,2.1,0.61,4.09,4.63
20.97199821472168,1.73,0.76,3.96,4.38
20.983386993408203,1.38,1.0,3.73,4.1
20.992165088653564,1.11,1.23,3.57,3.93
21.00224208831787,0.77,1.37,3.49,3.82
21.01757311820984,0.24,1.44,3.31,3.61
21.022335052490234,-0.51,1.7,2.9,3.4
21.033573150634766,-1.2,2.1,2.51,3.48
21.042522192001343,-1.62,2.45,2.07,3.59
21.05254602432251,-1.81,2.96,1.83,3.92
21.06275701522827,-1.93,3.9,1.64,4.65
21.072781085968018,-2.23,5.28,1.13,5.84
21.08412504196167,-2.87,6.74,0.55,7.34
21.092916011810303,-3.72,7.75,0.2,8.59
21.103048086166382,-4.6,8.27,-0.53,9.47
21.117268085479736,-5.67,9.05,-1.96,10.85
21.123101234436035,-7.08,9.48,-2.84,12.16
21.134481191635132,-8.2,8.31,-3.66,12.23
21.143757104873657,-8.59,6.35,-5.0,11.79
21.153388023376465,-8.36,4.86,-5.81,11.28
21.16346311569214,-8.02,4.08,-6.41,11.04
21.17360830307007,-7.84,3.94,-6.99,11.21
21.185094118118286,-7.92,3.79,-8.14,11.97
21.194353103637695,-7.85,3.57,-9.3,12.68
21.20379114151001,-8.32,3.07,-9.04,12.66
21.217273235321045,-9.16,1.85,-7.65,12.07
21.224115133285522,-10.21,0.19,-6.37,12.03
21.235279083251953,-11.52,-1.87,-4.87,12.64
21.244204998016357,-13.14,-3.75,-3.65,14.14
21.254188060760498,-14.46,-4.74,-4.35,15.82
21.264352321624756,-14.8,-5.49,-5.46,16.7
21.274453163146973,-12.5,-4.15,-6.91,14.87
21.285616159439087,-6.9,-5.83,-6.89,11.36
21.294382095336914,-5.1,-6.71,-8.87,12.23
21.305685997009277,-4.11,-2.4,-0.35,4.77
21.31737232208252,0.23,4.2,13.08,13.73
21.324676990509033,1.68,9.94,6.19,11.82
21.336480140686035,3.15,19.43,-1.38,19.73
21.34486198425293,7.16,20.96,-9.34,24.03
21.3548641204834,2.39,1.09,-11.18,11.48
21.365265130996704,-1.96,-0.95,1.86,2.86
21.375081062316895,-5.64,-0.47,5.61,7.96
21.386669158935547,-5.88,-1.47,-3.48,6.98
21.39541721343994,-5.4,-2.33,-6.72,8.93
21.4068922996521,-6.2,-2.06,-3.87,7.59
21.41771912574768,-7.45,-1.47,-0.64,7.62
21.42551898956299,-7.55,-1.41,-0.74,7.71
21.436837196350098,-6.23,-2.01,-1.62,6.74
21.445877075195312,-4.05,-1.68,-1.94,4.79
21.455873012542725,-2.11,-0.74,-1.58,2.73
21.46596097946167,-0.61,0.11,-0.95,1.13
21.4759840965271,0.33,0.52,-1.0,1.17
21.487330198287964,0.67,0.55,-0.74,1.13
21.49626398086548,0.68,0.28,-0.51,0.89
21.507533073425293,0.77,-0.16,-0.03,0.78
21.51772403717041,0.68,0.02,0.01,0.68
21.526416301727295,0.54,0.03,0.27,0.6
21.537769317626953,0.37,-0.06,0.21,0.42
21.546646118164062,-0.2,0.07,-0.21,0.29
21.556690216064453,-0.81,-0.07,-0.52,0.96
21.566784143447876,-1.22,-0.48,-0.13,1.31
21.57714605331421,-1.29,-0.59,0.35,1.46
21.588297128677368,-0.98,-0.38,0.27,1.08
21.59701919555664,-0.27,-0.18,0.44,0.54
21.608126163482666,0.54,0.19,0.57,0.8
21.61735200881958,0.81,0.39,-0.37,0.97
21.627418041229248,0.7,0.12,-0.95,1.18
21.63847303390503,0.56,-0.02,-0.39,0.68
21.647332191467285,0.1,-0.06,-0.15,0.19
21.65737509727478,-0.23,-0.17,-0.1,0.3
21.667526245117188,-0.29,-0.18,0.11,0.35
21.677495002746582,-0.18,-0.07,-0.02,0.19
21.688873291015625,0.06,0.11,-0.22,0.25
21.697782039642334,0.3,0.18,-0.4,0.53
21.707767009735107,0.6,0.13,-0.48,0.77
21.71774911880493,0.6,0.14,-0.39,0.72
21.727858066558838,0.45,0.11,0.03,0.46
21.739202976226807,0.06,0.05,0.43,0.43
21.748245239257812,-0.28,-0.1,0.08,0.3
21.758219242095947,-0.24,-0.11,-0.2,0.33
21.768402099609375,0.04,0.05,0.32,0.32
21.77851104736328,0.26,0.15,0.29,0.41
21.789677143096924,0.2,0.19,-0.67,0.72
21.798604011535645,0.04,0.06,-0.68,0.68
21.808706283569336,0.59,0.21,0.1,0.63
21.81875705718994,0.86,0.53,0.28,1.04
21.82882022857666,1.0,0.65,0.34,1.24
21.840195178985596,1.23,0.76,0.68,1.59
21.849019050598145,1.23,0.78,0.69,1.61
21.858992099761963,1.12,0.71,0.49,1.41
21.869264125823975,0.92,0.7,0.21,1.17
21.879369258880615,0.56,0.68,-0.35,0.94
21.891013145446777,0.27,0.64,-0.85,1.09
21.899551153182983,0.09,0.64,-1.27,1.42
21.909640312194824,0.08,0.8,-1.5,1.7
21.919620990753174,0.18,1.4,-1.52,2.07
21.929840087890625,0.34,2.74,-1.24,3.02
21.94124412536621,1.21,3.71,0.26,3.91
21.949998140335083,1.87,3.55,1.5,4.28
21.960312128067017,1.83,3.68,0.25,4.11
21.970152139663696,1.76,4.19,0.34,4.55
21.98013210296631,1.56,4.09,1.24,4.54
21.99164319038391,1.3,3.56,0.86,3.88
22.000352144241333,1.14,3.73,0.26,3.9
22.017340183258057,1.32,4.73,0.47,4.93
22.020434141159058,1.91,6.14,0.9,6.49
22.030579090118408,3.03,7.49,1.01,8.14
22.04197120666504,4.73,7.43,0.87,8.85
22.05077815055847,5.99,7.59,-0.06,9.66
22.06078314781189,6.34,8.75,-0.74,10.83
22.07096004486084,6.63,10.97,-0.13,12.81
22.081040143966675,7.36,12.08,1.38,14.21
22.092411994934082,7.68,11.18,1.15,13.61
22.102665185928345,7.63,10.5,-0.42,12.98
22.117187023162842,7.99,10.8,-2.01,13.58
22.121273040771484,8.93,10.66,-0.89,13.93
22.131431102752686,8.85,10.82,0.91,14.0
22.142755031585693,8.1,9.23,0.15,12.28
22.151628971099854,8.2,5.36,-3.7,10.47
22.161437034606934,9.43,-0.45,-5.82,11.09
22.17161798477173,11.34,-4.03,-0.6,12.04
22.181785106658936,9.62,-2.59,8.97,13.4
22.193718194961548,5.8,-2.78,4.14,7.64
22.203482151031494,6.77,-2.61,0.84,7.3
22.21714210510254,10.31,-2.95,4.06,11.46
22.221978187561035,12.83,-3.33,5.25,14.25
22.23220729827881,12.48,-1.45,3.21,12.96
22.243974208831787,11.09,-0.36,1.76,11.23
22.252379179000854,9.78,-0.63,1.96,9.99
22.262359142303467,8.39,-1.03,2.98,8.96
22.272500038146973,7.26,-1.37,3.61,8.22
22.282567024230957,6.3,-1.67,3.23,7.27
22.294304132461548,5.51,-1.98,2.85,6.51
22.30397129058838,4.89,-2.14,3.04,6.14
22.316970109939575,4.42,-1.71,3.4,5.83
22.322665214538574,4.19,-0.98,3.25,5.39
22.33282232284546,3.96,-0.24,2.73,4.81
22.344614028930664,3.52,0.54,2.59,4.4
22.352949142456055,2.52,1.29,2.55,3.81
22.36315417289734,1.12,1.67,1.97,2.81
22.373223304748535,-0.2,1.86,1.05,2.14
22.383405208587646,-1.13,2.28,0.28,2.56
22.395307064056396,-1.43,2.86,0.2,3.2
22.405034065246582,-1.42,3.58,0.14,3.85
22.4190092086792,-1.7,4.66,-0.24,4.96
22.423627138137817,-2.27,5.89,-0.61,6.34
22.433855056762695,-3.03,6.97,-0.8,7.64
22.445466995239258,-4.01,8.02,-0.9,9.01
22.453965187072754,-4.96,8.69,-1.13,10.06
22.4640371799469,-5.77,8.53,-1.33,10.38
22.474135160446167,-6.42,8.07,-1.55,10.42
22.484244108200073,-6.54,7.81,-1.85,10.35
22.49559211730957,-6.38,7.6,-2.37,10.2
22.504393100738525,-6.27,7.39,-4.05,10.5
22.51879119873047,-6.62,6.94,-6.15,11.39
22.524564266204834,-7.36,6.02,-7.17,11.9
22.53462815284729,-7.67,5.27,-7.37,11.87
22.54593324661255,-8.03,5.59,-6.72,11.86
22.554859161376953,-8.8,5.92,-5.12,11.77
22.564824104309082,-9.61,4.98,-3.07,11.25
22.574912071228027,-10.61,2.73,-1.3,11.03
22.58512020111084,-11.43,0.53,-1.66,11.56
22.596598148345947,-11.94,-1.43,-2.53,12.28
22.605253219604492,-12.65,-3.36,-2.94,13.41
22.619608163833618,-13.65,-5.06,-2.65,14.79
22.625271320343018,-14.52,-6.21,-2.23,15.94
22.635374069213867,-14.9,-6.63,-2.39,16.48
22.646733283996582,-13.52,-5.64,-2.58,14.87
22.655502319335938,-10.11,-3.51,-3.32,11.2
22.66564702987671,-5.71,-3.5,-5.63,8.74
22.675754070281982,-1.83,-4.56,-2.73,5.62
22.68587827682495,2.07,-2.89,5.85,6.84
22.697404146194458,3.89,1.89,3.16,5.35
22.70606017112732,13.12,34.7,1.39,37.12
22.721045970916748,20.13,42.04,3.04,46.7
22.726235151290894,2.92,-16.29,1.62,16.62
22.736303091049194,0.18,-8.09,-5.03,9.52
22.74757218360901,-2.83,4.48,-12.19,13.29
22.756461143493652,-5.49,4.13,2.3,7.24
22.766433238983154,-8.18,1.69,4.08,9.29
22.77655601501465,-9.1,-3.7,-3.88,10.56
22.7867112159729,-7.8,-5.98,-0.18,9.83
22.79819107055664,-6.86,-2.12,-4.37,8.4
22.806840181350708,-7.81,-2.32,-9.15,12.25
22.820897102355957,-8.19,-4.71,-0.96,9.49
22.82725429534912,-6.95,-3.34,4.96,9.16
22.83708119392395,-5.14,-1.7,-1.3,5.56
22.848374128341675,-2.33,-1.24,-2.85,3.88
22.857291221618652,0.35,-0.01,-0.59,0.68
22.86731719970703,1.61,0.82,-0.18,1.81
22.877583980560303,1.94,0.66,-0.94,2.25
22.887473106384277,1.94,0.55,-1.16,2.32
22.900551319122314,1.61,0.59,-0.38,1.75
22.907719135284424,0.46,0.13,-0.13,0.49
22.921866178512573,-0.66,-0.38,-0.03,0.76
22.92767906188965,-1.2,-0.52,0.13,1.31
22.9379141330719,-1.04,-0.42,0.24,1.14
22.949138164520264,-0.49,-0.14,0.17,0.53
22.958048105239868,0.01,0.07,-0.1,0.12
22.968087196350098,0.43,0.15,-0.22,0.5
22.978170156478882,0.56,0.21,-0.03,0.59
22.9882869720459,0.58,0.14,0.2,0.62
23.001492977142334,0.36,0.05,0.14,0.38
23.008509159088135,0.04,-0.07,-0.04,0.09
23.023014068603516,-0.16,-0.18,-0.19,0.3
23.028597116470337,-0.18,-0.05,0.15,0.23
23.03869104385376,-0.11,0.0,0.32,0.33
23.049910068511963,-0.06,-0.05,-0.27,0.28
23.058890104293823,0.14,0.01,-0.39,0.41
23.068934202194214,0.41,0.22,0.18,0.49
23.07900309562683,0.46,0.31,0.2,0.58
23.089174270629883,0.38,0.16,0.01,0.41
23.10203719139099,0.37,0.21,0.43,0.6
23.10920524597168,0.21,0.27,0.69,0.77
23.123550176620483,-0.06,0.04,0.28,0.28
23.129374980926514,-0.29,-0.13,0.01,0.31
23.13953709602356,-0.36,-0.08,0.07,0.37
23.15080714225769,-0.37,0.05,-0.12,0.39
23.1596622467041,-0.16,0.11,-0.35,0.4
23.16965103149414,0.27,0.33,-0.15,0.45
23.179853200912476,0.61,0.58,0.0,0.84
23.189969062805176,0.88,0.67,-0.15,1.11
23.202794075012207,1.14,0.81,0.02,1.39
23.21786117553711,1.19,1.02,0.37,1.61
23.224433183670044,0.95,0.93,-0.01,1.32
23.230115175247192,0.76,1.01,-0.43,1.33
23.24014711380005,0.9,1.44,-0.45,1.75
23.251615047454834,1.14,1.92,-0.27,2.24
23.26083016395569,1.22,1.89,-0.13,2.25
23.27042818069458,1.21,2.0,-0.57,2.4
23.28055429458618,1.35,2.4,-0.61,2.82
23.290664196014404,1.59,2.61,-0.06,3.05
23.302181243896484,1.49,2.65,0.12,3.04
23.31798505783081,1.02,2.54,0.28,2.75
23.32426118850708,0.57,2.2,0.92,2.45
23.331003189086914,0.12,2.25,0.9,2.42
23.341012001037598,-0.16,2.57,-0.01,2.57
23.352471113204956,-0.1,2.86,-0.86,2.98
23.361143112182617,0.61,4.04,-1.15,4.24
23.3713641166687,1.61,6.24,-0.53,6.46
23.381503105163574,2.73,8.87,0.75,9.31
23.391536235809326,3.99,10.03,1.99,10.97
23.402997970581055,4.91,10.67,2.29,11.96
23.4180691242218,5.33,11.37,1.73,12.67
23.424440145492554,5.76,12.03,0.99,13.37
23.432287216186523,6.67,12.41,0.42,14.09
23.441968202590942,7.26,12.38,-0.42,14.35
23.45322608947754,7.12,11.39,-0.2,13.43
23.462138175964355,7.3,11.36,-0.82,13.52
23.472090244293213,8.4,11.83,-1.06,14.54
23.482190132141113,8.83,11.55,-0.36,14.54
23.492302179336548,9.29,8.7,0.38,12.73
23.50373911857605,10.49,4.67,-0.82,11.51
23.518144130706787,12.07,-0.41,-2.86,12.41
23.52461528778076,12.36,-0.51,1.98,12.52
23.532602310180664,8.54,1.0,5.69,10.31
23.542685985565186,5.57,-0.73,2.5,6.14
23.553935050964355,7.38,-1.68,4.4,8.75
23.563032150268555,10.8,-3.09,7.9,13.73
23.57294225692749,12.51,-3.42,6.82,14.65
23.583118200302124,11.6,-1.9,3.98,12.41
23.593115091323853,9.92,-1.33,3.1,10.47
23.604631185531616,8.5,-1.19,3.5,9.26
23.617370128631592,7.37,-0.97,4.04,8.46
23.623812198638916,6.61,-0.92,3.76,7.66
23.633448123931885,6.03,-1.01,3.11,6.85
23.643907070159912,5.56,-0.93,2.77,6.28
23.65488624572754,5.16,-0.67,2.69,5.85
23.663708209991455,4.78,-0.43,2.53,5.42
23.673762321472168,4.35,-0.2,2.55,5.04
23.68402409553528,3.86,-0.01,2.69,4.7
23.702576160430908,3.16,0.18,2.42,3.98
23.706899166107178,2.35,0.32,2.03,3.12
23.71414804458618,1.65,0.6,1.78,2.5
23.724153995513916,0.85,1.11,1.49,2.04
23.734260082244873,-0.04,1.71,0.89,1.92
23.744301319122314,-0.85,2.16,0.11,2.32
23.755767107009888,-1.49,2.31,-0.55,2.8
23.76461696624756,-1.8,2.43,-0.76,3.11
23.774481296539307,-1.84,3.06,-0.23,3.57
23.784873008728027,-2.06,4.38,-0.22,4.84
23.795956134796143,-2.52,5.84,-1.15,6.46
23.806278228759766,-3.35,7.3,-2.37,8.37
23.817917108535767,-4.7,8.64,-2.86,10.24
23.82525110244751,-6.43,9.6,-2.22,11.76
23.835487127304077,-7.9,10.0,-1.77,12.86
23.845283031463623,-8.24,9.88,-2.73,13.15
23.857009172439575,-8.09,9.68,-5.18,13.63
23.86543321609497,-8.05,9.82,-7.47,14.73
23.875360012054443,-8.3,9.01,-9.31,15.38
23.8856041431427,-8.76,7.29,-11.35,16.08
23.89695405960083,-9.41,5.31,-11.88,16.05
23.907071113586426,-10.56,2.68,-8.9,14.06
23.91816997528076,-12.55,-0.55,-3.22,12.96
23.925803184509277,-15.46,-2.89,-0.17,15.72
23.93593120574951,-17.73,-4.32,0.13,18.24
23.946078300476074,-18.33,-5.47,-1.92,19.22
23.957391262054443,-18.11,-6.7,-3.65,19.65
23.966279983520508,-16.11,-5.49,-4.24,17.53
23.976298093795776,-9.54,-2.51,-3.43,10.44
23.98644709587097,-4.16,-5.3,-6.97,9.69
23.997985124588013,-1.46,-2.83,0.64,3.24
24.008045196533203,2.11,3.98,12.28,13.08
24.01763916015625,3.05,12.99,7.1,15.11
24.02662420272827,8.34,24.76,-2.23,26.22
24.036729097366333,4.69,2.98,-6.14,8.28
24.046863079071045,-0.78,-6.57,-1.32,6.74
24.058096170425415,-4.06,-0.54,2.71,4.91
24.06715202331543,-6.52,2.99,-0.29,7.17
24.077542304992676,-6.41,5.88,-1.17,8.77
24.08716106414795,-5.63,10.44,-2.26,12.07
24.101332187652588,-5.35,1.01,-12.04,13.21
24.108399152755737,-4.35,-8.09,-11.05,14.36
24.11738109588623,-6.62,-7.27,4.28,10.72
24.127692222595215,-8.94,-3.79,5.2,11.01
24.13758611679077,-8.77,-2.67,-3.77,9.91
24.147770166397095,-6.43,-3.55,-1.35,7.46
24.15904211997986,-3.91,-2.04,0.29,4.41
24.16792106628418,-1.4,-0.28,1.08,1.79
24.177850246429443,0.3,0.09,-0.58,0.65
24.188157081604004,1.53,0.31,-1.04,1.87
24.201897144317627,2.2,0.99,-0.03,2.41
24.209283113479614,1.73,0.85,-0.27,1.94
24.21825408935547,0.85,0.1,-1.28,1.53
24.228196144104004,0.47,-0.22,-0.91,1.04
24.238481998443604,-0.01,-0.21,-0.3,0.36
24.2486732006073,-0.54,-0.4,-0.66,0.94
24.2605299949646,-0.64,-0.36,-0.44,0.85
24.268684148788452,-0.45,-0.19,-0.12,0.5
24.278712272644043,0.01,-0.02,0.12,0.12
24.288854122161865,0.25,0.12,0.26,0.38
24.302431106567383,0.47,0.22,0.37,0.63
24.311238288879395,0.58,0.33,0.54,0.85
24.31910228729248,0.3,0.23,0.1,0.39
24.329094171524048,0.2,0.19,-0.02,0.27
24.33921527862549,0.03,-0.31,-0.74,0.8
24.349316120147705,-0.27,-0.16,-0.61,0.68
24.361266136169434,-0.16,-0.03,0.28,0.32
24.369519233703613,-0.18,0.03,0.32,0.36
24.37952208518982,-0.28,-0.03,0.04,0.28
24.38968324661255,-0.23,0.01,0.28,0.36
24.399810314178467,-0.08,0.11,0.2,0.24
24.419556140899658,0.12,0.1,-0.16,0.22
24.421757221221924,0.28,0.26,-0.11,0.39
24.429877281188965,0.35,0.24,-0.09,0.43
24.44001531600952,0.46,0.28,-0.06,0.54
24.450115203857422,0.29,0.32,0.16,0.46
24.46174716949463,-0.06,0.3,-0.15,0.34
24.470205307006836,-0.2,0.34,-0.43,0.58
24.480257987976074,-0.1,0.48,-0.49,0.69
24.491679191589355,0.28,0.68,-0.56,0.92
24.500819206237793,0.85,0.95,-0.26,1.3
24.51201105117798,1.2,1.53,0.59,2.03
24.520636081695557,1.15,1.63,0.8,2.14
24.530728101730347,1.04,1.43,0.27,1.78
24.54077410697937,0.89,1.49,0.05,1.73
24.550950050354004,0.77,1.54,-0.09,1.72
24.562141180038452,0.78,1.54,-0.6,1.82
24.571171283721924,0.87,1.92,-1.15,2.4
24.58115530014038,1.22,2.52,-0.95,2.95
24.592498302459717,1.62,2.76,-0.41,3.22
24.601603031158447,1.67,2.79,-0.59,3.3
24.612328052520752,1.61,3.18,-0.64,3.62
24.62136697769165,1.41,4.04,-0.45,4.3
24.631574153900146,1.47,5.2,0.05,5.4
24.641497135162354,2.08,5.94,0.02,6.29
24.651741981506348,2.84,6.79,-0.27,7.36
24.662890195846558,3.25,9.15,-0.26,9.71
24.671833992004395,4.19,10.49,0.58,11.31
24.68199920654297,4.95,11.61,1.63,12.72
24.693096160888672,5.95,11.07,1.59,12.66
24.701969146728516,6.06,12.21,-0.53,13.64
24.713701248168945,6.4,13.1,-1.93,14.7
24.72263216972351,7.37,13.5,-1.98,15.5
24.732882022857666,8.45,13.34,0.05,15.79
24.742793083190918,9.3,12.82,1.42,15.9
24.75294017791748,10.08,14.32,2.53,17.69
24.76382303237915,11.21,14.09,4.88,18.65
24.77270221710205,12.38,12.13,2.01,17.44
24.78266716003418,14.42,9.72,-5.52,18.24
24.80048704147339,14.77,-2.78,-0.79,15.05
24.802918195724487,11.81,-3.18,8.95,15.15
24.81411600112915,5.5,-2.2,5.36,7.98
24.823000192642212,3.97,-1.62,3.27,5.39
24.833149194717407,6.07,-2.58,5.1,8.33
24.84308624267578,8.86,-3.87,5.42,11.08
24.853332042694092,9.51,-2.93,3.17,10.44
24.864612102508545,9.04,-1.64,1.38,9.29
24.873531103134155,8.68,-1.33,1.76,8.95
24.883538246154785,8.1,-1.55,2.9,8.74
24.900036096572876,7.25,-1.78,3.6,8.28
24.90370512008667,6.42,-2.12,3.64,7.67
24.915062189102173,5.64,-2.37,3.69,7.14
24.923789024353027,4.87,-2.3,4.13,6.78
24.934009075164795,4.21,-2.02,4.88,6.75
24.944416046142578,3.85,-1.58,5.19,6.65
24.954312086105347,3.76,-1.08,4.98,6.33
24.965585231781006,3.83,-0.77,4.67,6.08
24.974613189697266,3.74,-0.66,3.94,5.47
24.98439598083496,3.13,-0.2,2.68,4.12
25.001244068145752,1.94,0.77,1.5,2.57
25.004552125930786,0.56,1.67,0.98,2.01
25.015886306762695,-0.77,2.31,0.74,2.54
25.02465009689331,-1.65,2.67,0.2,3.14
25.034714221954346,-1.96,2.92,-0.27,3.52
25.044743061065674,-2.1,3.22,-0.16,3.84
25.054912090301514,-2.55,3.93,0.29,4.69
25.066425323486328,-3.35,5.22,-0.24,6.2
25.075159072875977,-4.18,6.69,-1.7,8.06
25.085211277008057,-4.66,7.78,-2.47,9.39
25.10091209411621,-4.95,8.44,-2.82,10.18
25.105399131774902,-5.37,9.33,-4.01,11.48
25.117183208465576,-5.48,9.95,-4.73,12.3
25.126063108444214,-5.64,10.9,-6.19,13.74
25.13556718826294,-6.14,11.4,-7.97,15.2
25.14579200744629,-6.84,9.14,-8.07,13.98
25.15587615966797,-7.71,7.29,-8.53,13.61
25.16735315322876,-8.49,6.34,-9.59,14.29
25.175998210906982,-8.9,5.37,-9.46,14.05
25.186076164245605,-9.28,4.22,-8.34,13.17
25.201319217681885,-10.04,2.36,-5.62,11.74
25.206164121627808,-11.46,-0.17,-1.78,11.59
25.21752619743347,-13.59,-2.85,1.33,13.94
25.22636318206787,-15.37,-4.25,1.63,16.02
25.23643732070923,-15.95,-4.17,-0.56,16.49
25.246580123901367,-15.68,-4.25,-2.13,16.38
25.256747245788574,-14.45,-5.06,-1.97,15.43
25.26823329925537,-11.86,-4.4,-0.75,12.67
25.276841163635254,-9.37,-2.95,0.62,9.84
25.288290977478027,-7.68,-1.7,0.56,7.88
25.300960063934326,-7.02,-1.2,-0.06,7.12
25.30703616142273,-6.36,-1.45,0.21,6.52
25.318339109420776,-4.78,-2.01,-2.79,5.88
25.32756209373474,-3.0,-4.21,-2.9,5.92
25.337196111679077,-0.16,-5.52,2.86,6.21
25.347379207611084,8.94,11.4,9.07,17.09
25.357426166534424,26.92,58.35,10.7,65.14
25.369136095046997,11.04,0.84,3.06,11.48
25.378005027770996,4.18,-12.47,-3.34,13.56
25.389132022857666,3.27,0.48,-3.44,4.77
25.401334285736084,1.0,9.89,-8.8,13.27
25.407793045043945,-4.41,1.85,0.03,4.78
25.41911816596985,-7.82,-2.07,8.11,11.45
25.42780613899231,-9.46,-3.74,-0.48,10.18
25.438039302825928,-8.96,-6.45,-1.11,11.09
25.448148250579834,-6.83,-1.49,-1.23,7.09
25.458202123641968,-6.47,-2.51,-11.55,13.47
25.469460010528564,-6.11,-5.69,-13.67,16.01
25.478309154510498,-4.93,-2.93,-2.47,6.24
25.48963499069214,-3.33,-0.77,11.34,11.84
25.50067901611328,-3.06,-0.08,-1.44,3.38
25.50854730606079,-2.11,-1.2,-3.72,4.44
25.519891262054443,-0.56,-0.78,-0.15,0.97
25.52883815765381,-0.25,0.79,2.22,2.36
25.538900136947632,-0.66,0.13,0.69,0.96
25.548959255218506,-0.94,-0.65,-0.89,1.44
25.55901002883911,-0.67,-0.48,0.03,0.82
25.570317268371582,-0.98,-0.41,-0.1,1.06
25.57925820350647,-1.22,-0.64,-0.53,1.47
25.59043598175049,-1.16,-0.56,-0.19,1.3
25.60054922103882,-1.08,-0.34,-0.23,1.15
25.60939311981201,-0.71,-0.34,-0.7,1.05
25.62073516845703,-0.3,-0.28,-1.12,1.19
25.629661083221436,0.45,0.11,0.22,0.51
25.63962411880493,0.64,0.34,0.59,0.93
25.649747133255005,0.33,0.17,0.19,0.41
25.659839153289795,0.19,0.0,-0.07,0.2
25.671088218688965,0.09,0.0,-0.19,0.21
25.680076122283936,-0.07,-0.12,-0.47,0.49
25.69006609916687,-0.02,-0.1,-0.47,0.48
25.700472116470337,0.07,-0.03,-0.2,0.21
25.71058225631714,0.04,0.02,0.15,0.15
25.721681118011475,0.17,0.16,0.48,0.53
25.730528116226196,0.13,0.15,0.41,0.45
25.740463256835938,0.01,0.03,0.24,0.24
25.750569105148315,-0.01,-0.01,0.37,0.37
25.761118173599243,-0.05,0.0,0.4,0.4
25.772035121917725,-0.14,-0.05,0.15,0.21
25.78096318244934,0.02,0.09,0.28,0.29
25.790985107421875,0.14,0.14,0.31,0.36
25.800928115844727,0.38,0.28,0.27,0.54
25.81113624572754,0.45,0.42,0.3,0.68
25.822352170944214,0.54,0.5,0.16,0.75
25.831209182739258,0.77,0.57,0.06,0.95
25.841323137283325,0.78,0.58,-0.27,1.0
25.851449966430664,0.79,0.62,-0.45,1.1
25.86139416694641,0.74,0.72,-0.34,1.08
25.87311816215515,0.54,0.76,-0.5,1.05
25.881734132766724,0.6,0.88,-0.43,1.14
25.891720294952393,0.62,0.98,-0.56,1.28
25.90179419517517,0.76,1.36,-0.7,1.7
25.91178607940674,1.05,1.79,0.04,2.07
25.923219203948975,0.77,1.33,0.12,1.54
25.932119131088257,0.25,1.0,-1.0,1.43
25.942131996154785,-0.01,1.05,-1.06,1.49
25.95228099822998,0.03,1.22,-0.33,1.26
25.962367057800293,0.08,1.33,0.16,1.34
25.973936080932617,-0.12,1.44,0.13,1.45
25.982635974884033,-0.39,1.44,-0.01,1.49
25.992590188980103,-0.3,1.78,-0.36,1.84
26.002652168273926,-0.07,2.54,-0.79,2.66
26.012705087661743,0.41,3.51,-0.7,3.6
26.024240970611572,1.25,4.44,-0.71,4.66
26.03291606903076,2.08,5.73,-0.75,6.14
26.043057203292847,2.81,7.85,-0.43,8.34
26.05316400527954,3.35,11.08,0.44,11.58
26.063295125961304,4.65,11.12,1.74,12.17
26.07474422454834,5.92,9.95,2.06,11.75
26.084800243377686,5.53,13.28,0.9,14.41
26.100518226623535,6.33,12.9,0.43,14.37
26.103446006774902,7.66,11.87,0.15,14.12
26.11354398727417,7.87,11.95,-0.26,14.31
26.124812126159668,7.69,12.14,0.38,14.37
26.133703231811523,8.41,12.18,0.15,14.8
26.144153118133545,9.28,11.87,-0.06,15.06
26.153995990753174,9.57,10.44,-0.41,14.16
26.16402316093445,10.49,6.78,-1.08,12.53
26.17559814453125,11.34,1.56,-2.04,11.62
26.185821056365967,12.17,-1.01,-0.7,12.23
26.201273202896118,11.15,-0.29,6.76,13.04
26.20430898666382,7.26,-0.63,4.86,8.75
26.214593172073364,6.17,-1.25,2.02,6.61
26.22583818435669,8.06,-2.36,3.96,9.28
26.234585285186768,10.05,-3.86,6.19,12.41
26.244532108306885,9.96,-3.06,4.67,11.41
26.254698276519775,8.72,-1.81,2.18,9.16
26.264928102493286,7.85,-1.49,1.76,8.18
26.276254177093506,7.32,-1.44,2.69,7.93
26.286440134048462,7.12,-1.21,3.35,7.96
26.30143928527832,6.97,-0.91,2.93,7.61
26.305134296417236,6.6,-0.92,2.24,7.03
26.31511402130127,5.91,-1.04,2.06,6.34
26.32666826248169,5.05,-1.12,2.28,5.65
26.335302114486694,4.23,-1.18,2.37,4.99
26.345425128936768,3.59,-1.21,2.37,4.46
26.355463981628418,3.11,-1.23,2.21,4.0
26.365617275238037,2.75,-1.11,2.03,3.59
26.377628087997437,2.47,-0.76,1.91,3.21
26.387540102005005,2.1,-0.06,1.58,2.62
26.402335166931152,1.47,0.71,0.99,1.9
26.405768156051636,0.68,1.31,0.57,1.58
26.416004180908203,-0.04,1.85,0.31,1.87
26.427809238433838,-0.6,2.6,0.1,2.67
26.436230182647705,-0.93,3.82,-0.09,3.93
26.446226119995117,-1.2,5.49,-0.75,5.66
26.456212997436523,-1.34,7.02,-1.69,7.34
26.466395139694214,-1.76,7.96,-3.2,8.75
26.478142261505127,-2.56,8.16,-3.9,9.39
26.486680030822754,-3.8,8.56,-3.19,9.89
26.501301288604736,-5.08,9.3,-2.31,10.84
26.506744146347046,-5.95,9.52,-2.38,11.47
26.516821146011353,-6.19,8.53,-3.16,11.0
26.52858304977417,-6.4,7.39,-4.26,10.66
26.53698205947876,-6.63,6.6,-5.65,10.92
26.547046184539795,-6.79,6.1,-6.86,11.41
26.557091236114502,-6.93,5.6,-7.32,11.53
26.567283153533936,-7.51,5.14,-6.81,11.36
26.579119205474854,-8.54,5.07,-5.53,11.36
26.58747410774231,-9.78,4.72,-3.13,11.3
26.601384162902832,-10.66,3.59,-1.27,11.31
26.607523202896118,-11.02,1.87,-1.82,11.32
26.617611169815063,-11.0,0.18,-3.25,11.47
26.629312992095947,-11.26,-1.42,-3.76,11.95
26.637871265411377,-11.77,-2.76,-3.5,12.58
26.648061275482178,-12.46,-3.72,-3.08,13.36
26.65787410736084,-13.11,-4.48,-2.89,14.15
26.668076038360596,-13.32,-5.14,-2.85,14.55
26.67934513092041,-12.56,-4.99,-3.05,13.85
26.688282012939453,-9.77,-3.54,-4.6,11.36
26.702283143997192,-6.02,-3.59,-6.44,9.51
26.7082781791687,-2.98,-3.48,-6.15,7.66
26.71842622756958,1.14,1.74,4.62,5.06
26.729637145996094,18.13,45.51,12.89,50.65
26.73857307434082,15.24,20.15,6.8,26.16
26.748746156692505,2.34,-17.75,-2.99,18.15
26.75877618789673,0.22,-5.85,-10.74,12.23
26.768930196762085,-3.54,2.36,-5.88,7.25
26.78046226501465,-6.79,2.81,8.03,10.88
26.789117097854614,-8.71,0.91,3.71,9.51
26.804445266723633,-7.23,-2.13,-3.6,8.35
26.80920720100403,-4.86,-4.55,-0.49,6.67
26.81924819946289,-4.15,3.45,0.03,5.39
26.83071517944336,-5.06,2.91,-11.08,12.52
26.83941125869751,-4.88,-5.22,-10.36,12.58
26.849539279937744,-6.04,-4.47,4.2,8.6
26.859560012817383,-7.64,-2.9,5.32,9.75
26.869731187820435,-7.0,-2.36,-4.73,8.77
26.882402181625366,-4.39,-2.73,-2.08,5.57
26.889857292175293,-1.91,-0.93,0.98,2.33
26.90426206588745,-0.1,0.32,0.55,0.64
26.90995216369629,0.84,0.14,-1.7,1.9
26.920098304748535,1.57,0.35,-1.64,2.29
26.93156909942627,1.98,0.77,-0.27,2.14
26.94027018547058,1.3,0.55,-0.5,1.49
26.95037317276001,0.2,-0.06,-1.1,1.11
26.96079397201538,-0.58,-0.38,-0.39,0.79
26.97066617012024,-1.07,-0.46,0.21,1.18
26.983386993408203,-1.0,-0.32,0.19,1.06
26.99070119857788,-0.58,-0.29,-0.02,0.64
27.004963159561157,-0.27,-0.17,-0.12,0.34
27.011176109313965,0.0,-0.06,-0.17,0.18
27.020851135253906,0.22,0.03,-0.06,0.23
27.03220820426941,0.33,0.1,0.19,0.39
27.040940284729004,0.32,0.1,0.23,0.4
27.05109405517578,0.24,0.04,-0.16,0.29
27.061244010925293,0.14,-0.06,-0.46,0.48
27.07138729095459,0.19,-0.05,-0.25,0.31
27.08409810066223,0.17,0.01,-0.02,0.17
27.09153699874878,0.03,0.05,0.12,0.13
27.105382204055786,0.06,0.11,0.37,0.39
27.11140727996826,0.17,0.19,0.74,0.78
27.121562004089355,0.09,0.2,0.65,0.68
27.132970094680786,-0.01,0.18,0.49,0.52
27.141842126846313,0.11,0.21,0.52,0.57
27.15189027786255,0.16,0.18,0.43,0.49
27.161814212799072,0.24,0.15,0.25,0.37
27.172094106674194,0.33,0.17,0.23,0.43
27.184741020202637,0.32,0.17,0.01,0.36
27.192306995391846,0.37,0.25,-0.12,0.46
27.206616163253784,0.27,0.35,-0.22,0.49
27.21229600906372,0.27,0.35,-0.45,0.63
27.222480297088623,0.4,0.52,-0.36,0.74
27.233805179595947,0.59,0.68,-0.25,0.93
27.242656230926514,0.78,0.81,-0.26,1.15
27.252764225006104,0.75,0.88,-0.26,1.18
27.262874126434326,0.68,1.23,-0.22,1.42
27.27294397354126,0.69,1.69,-0.18,1.83
27.284342288970947,0.94,2.07,0.03,2.27
27.293155193328857,1.0,2.37,0.35,2.59
27.307327270507812,1.2,2.43,0.28,2.72
27.31333827972412,1.3,2.54,-0.29,2.86
27.323203086853027,1.3,2.91,-0.38,3.2
27.334519147872925,1.41,3.11,0.04,3.41
27.343384265899658,1.48,3.17,0.24,3.5
27.35356330871582,1.12,3.53,0.27,3.71
27.3637752532959,0.76,3.81,-0.22,3.89
27.373759269714355,1.01,4.15,-0.76,4.33
27.38503122329712,1.54,5.37,-1.09,5.69
27.401153087615967,2.13,8.19,-0.59,8.48
27.407602310180664,3.0,11.3,0.68,11.71
27.414080142974854,4.52,11.55,2.37,12.62
27.424066066741943,5.99,10.39,3.34,12.44
27.435410022735596,5.76,13.47,2.34,14.83
27.444533109664917,5.9,14.71,2.05,15.98
27.454962253570557,6.89,13.77,2.01,15.52
27.464998245239258,6.68,13.99,0.22,15.5
27.47441005706787,7.18,12.96,-1.18,14.86
27.485889196395874,8.71,12.0,-2.44,15.02
27.501132011413574,9.61,12.1,-1.47,15.52
27.50708532333374,10.46,10.01,-0.27,14.48
27.51478624343872,14.02,11.52,-0.08,18.14
27.524813175201416,14.92,3.52,-1.94,15.45
27.536121129989624,12.08,-5.18,1.78,13.26
27.544828176498413,10.67,-3.56,4.78,12.22
27.55510711669922,7.38,-3.72,1.84,8.46
27.565208196640015,6.64,-3.87,1.7,7.87
27.575239181518555,8.88,-3.13,6.2,11.27
27.58679723739624,10.86,-3.42,9.47,14.8
27.60087513923645,10.84,-4.43,7.19,13.74
27.607322216033936,9.73,-4.08,3.64,11.16
27.61567711830139,8.75,-2.89,2.72,9.6
27.625586986541748,8.04,-2.16,3.92,9.2
27.637035131454468,7.37,-1.91,5.0,9.1
27.64589214324951,6.53,-1.78,4.5,8.12
27.655978202819824,5.67,-1.6,3.24,6.72
27.666113138198853,4.88,-1.4,2.45,5.63
27.68441414833069,4.34,-1.03,2.39,5.06
27.68867301940918,4.01,-0.41,2.53,4.75
27.696319103240967,3.76,0.2,2.54,4.54
27.706339120864868,3.41,0.59,2.23,4.11
27.716485023498535,2.91,0.83,2.12,3.69
27.726498126983643,2.17,1.1,2.32,3.36
27.73784112930298,1.27,1.51,2.15,2.91
27.74671697616577,0.11,2.09,1.17,2.39
27.75681710243225,-1.23,2.53,-0.07,2.81
27.766823291778564,-2.32,2.56,-0.91,3.57
27.785527229309082,-2.75,2.64,-1.26,4.01
27.790035247802734,-2.53,3.1,-0.98,4.11
27.797086238861084,-2.13,4.01,-0.98,4.64
27.80725622177124,-1.92,5.22,-1.32,5.71
27.81734609603882,-2.22,7.26,-2.29,7.92
27.827787160873413,-3.01,9.76,-4.35,11.1
27.83923316001892,-4.04,11.09,-4.27,12.55
27.848134994506836,-5.52,11.28,-3.49,13.03
27.858139038085938,-6.71,10.93,-5.07,13.79
27.86824607849121,-7.13,10.8,-7.07,14.74
27.879541158676147,-7.07,10.56,-8.56,15.32
27.888997077941895,-7.11,10.14,-10.25,16.07
27.90105414390564,-7.41,9.06,-11.4,16.33
27.907878160476685,-7.84,7.56,-11.31,15.7
27.918193101882935,-8.65,5.38,-9.51,13.93
27.928032159805298,-10.04,2.0,-4.54,11.19
27.939495086669922,-12.28,-1.65,0.34,12.39
27.948429107666016,-14.28,-4.38,2.14,15.08
27.958439111709595,-15.67,-5.65,1.35,16.71
27.968475103378296,-16.42,-5.95,-1.54,17.53
27.979684114456177,-16.87,-6.44,-2.24,18.19
27.98997402191162,-15.9,-6.86,-0.75,17.33
28.000871181488037,-12.37,-5.34,0.66,13.48
28.00874900817871,-8.81,-3.11,-0.93,9.38
28.018959999084473,-5.42,-2.28,-2.29,6.31
28.02902317047119,-3.2,-3.83,-2.08,5.4
28.040215015411377,0.92,-1.83,1.16,2.35
28.049227237701416,9.54,13.59,9.53,19.14
28.059324264526367,23.1,49.52,9.99,55.54
28.06942915916443,7.71,-1.24,-1.54,7.95
28.08473825454712,1.66,-13.96,-4.26,14.68
28.090793132781982,-0.19,0.37,-6.7,6.71
28.099757194519043,-2.76,9.0,-5.98,11.15
28.10969829559326,-7.77,1.35,6.86,10.45
28.11980628967285,-10.62,-1.79,3.28,11.25
28.129863262176514,-9.57,-0.85,2.38,9.89
28.14124298095703,-7.4,0.36,-5.7,9.34
28.150131225585938,-6.6,-6.42,-14.52,17.19
28.160219192504883,-7.5,-7.15,-11.0,15.11
28.17021918296814,-8.7,-4.49,7.7,12.45
28.184741020202637,-8.02,-1.87,5.99,10.18
28.191633224487305,-6.19,-2.17,-4.34,7.86
28.200486183166504,-2.95,-2.47,-3.46,5.17
28.210816144943237,-0.04,-0.02,0.15,0.15
28.220614194869995,1.43,1.32,1.74,2.61
28.230704307556152,1.03,0.29,-1.02,1.47
28.242050170898438,1.28,0.22,-0.89,1.57
28.250867128372192,1.25,0.57,-0.05,1.37
28.261372089385986,0.56,0.18,-0.39,0.7
28.27107310295105,0.04,-0.16,-0.73,0.74
28.284965991973877,-0.43,-0.29,-0.65,0.83
28.292428970336914,-0.58,-0.41,-0.52,0.88
28.301242113113403,-0.32,-0.18,-0.23,0.43
28.311318159103394,0.05,0.03,-0.14,0.15
28.321617126464844,0.32,0.13,-0.16,0.38
28.33145809173584,0.38,0.09,-0.09,0.4
28.34274411201477,0.35,0.07,0.08,0.36
28.351521015167236,0.32,0.07,0.18,0.37
28.361436128616333,0.32,0.13,0.48,0.59
28.371836185455322,0.06,0.1,0.3,0.32
28.386006116867065,-0.29,-0.12,-0.3,0.43
28.393136024475098,-0.3,-0.18,-0.25,0.43
28.402050971984863,-0.04,0.02,0.24,0.24
28.411959171295166,0.14,0.11,0.25,0.3
28.422219276428223,0.12,0.1,0.11,0.19
28.432258129119873,0.22,0.18,0.39,0.48
28.44416904449463,0.3,0.23,0.69,0.78
28.45258116722107,-0.06,0.06,0.49,0.49
28.462586164474487,-0.11,0.13,0.4,0.43
28.4739351272583,-0.03,-0.08,-0.05,0.09
28.48493719100952,-0.04,-0.04,-0.47,0.47
28.49447727203369,0.19,0.15,-0.06,0.24
28.502912044525146,0.39,0.3,-0.03,0.49
28.512940168380737,0.52,0.44,-0.1,0.68
28.523017168045044,0.53,0.5,-0.1,0.73
28.533111095428467,0.46,0.53,-0.17,0.72
28.544823169708252,0.49,0.5,-0.31,0.76
28.553248167037964,0.5,0.51,-0.42,0.82
28.563393115997314,0.49,0.55,-0.34,0.81
28.574800968170166,0.5,0.65,-0.26,0.86
28.58458709716797,0.5,0.81,-0.16,0.96
28.595306158065796,0.42,1.04,-0.24,1.14
28.603758096694946,0.5,1.59,-0.1,1.66
28.613773107528687,0.82,1.95,0.14,2.12
28.623927116394043,1.13,1.92,0.17,2.23
28.63397216796875,1.12,2.0,-0.25,2.3
28.646028995513916,1.08,2.23,-0.49,2.52
28.654221057891846,1.13,2.42,-0.33,2.69
28.664215087890625,1.12,2.43,-0.3,2.69
28.67570924758911,1.08,2.33,-0.44,2.6
28.68552017211914,1.18,2.46,-0.34,2.74
28.696012020111084,1.21,2.71,-0.09,2.96
28.70453929901123,1.08,3.17,0.11,3.35
28.714534282684326,1.0,3.75,0.21,3.88
28.724663257598877,1.19,4.29,0.21,4.45
28.734724044799805,1.57,5.3,0.11,5.52
28.74603819847107,2.12,7.61,0.13,7.9
28.75488805770874,2.92,10.31,0.67,10.73
28.765085220336914,4.56,9.61,1.66,10.76
28.77640724182129,4.96,11.03,1.34,12.16
28.786099195480347,5.16,13.23,0.52,14.21
28.796248197555542,6.74,11.82,-0.33,13.61
28.805280208587646,7.17,11.5,-1.52,13.63
28.815299034118652,7.07,12.11,0.11,14.02
28.82553005218506,7.9,12.48,1.03,14.8
28.83552312850952,9.03,12.17,0.61,15.16
28.846870183944702,9.0,10.79,0.34,14.05
28.855781078338623,8.92,7.16,-0.44,11.44
28.86581015586853,9.81,2.32,-2.21,10.32
28.87589120864868,11.09,-1.44,-1.73,11.31
28.885931968688965,11.39,-1.09,5.6,12.73
28.897308111190796,7.74,-0.69,6.34,10.02
28.90614914894104,5.29,-1.71,2.47,6.08
28.91620397567749,6.85,-2.28,2.62,7.68
28.92634630203247,9.7,-3.41,5.16,11.5
28.936367988586426,11.01,-2.72,4.82,12.32
28.94789409637451,10.48,-1.0,2.81,10.89
28.95655107498169,9.53,-0.44,2.05,9.75
28.96661114692688,8.57,-0.68,2.5,8.95
28.976691246032715,7.58,-0.98,3.31,8.32
28.9868061542511,6.77,-1.04,3.56,7.71
28.998165130615234,6.11,-1.19,3.18,6.99
29.006885051727295,5.51,-1.36,2.9,6.37
29.016935110092163,4.82,-1.28,2.98,5.8
29.027506113052368,4.21,-0.95,3.09,5.3
29.03714919090271,3.78,-0.51,2.89,4.78
29.04868221282959,3.49,-0.11,2.6,4.35
29.05740213394165,3.15,0.07,2.14,3.8
29.06742525100708,2.54,0.09,1.38,2.89
29.08473014831543,1.75,0.17,0.84,1.94
29.087568283081055,1.13,0.39,0.75,1.41
29.098963260650635,0.87,0.66,0.66,1.27
29.107815265655518,0.94,0.93,0.23,1.34
29.117884159088135,0.91,1.36,-0.38,1.67
29.12803816795349,0.51,2.06,-0.88,2.29
29.13814115524292,-0.11,2.84,-1.26,3.1
29.149407148361206,-0.93,3.54,-1.42,3.92
29.158244132995605,-1.99,4.22,-1.33,4.85
29.168301105499268,-3.06,5.01,-1.36,6.02
29.184914112091064,-3.94,5.98,-1.93,7.41
29.188426971435547,-4.77,7.08,-2.92,9.02
29.19983720779419,-5.78,8.22,-3.52,10.64
29.208616256713867,-6.7,8.99,-2.49,11.48
29.218562126159668,-7.55,9.42,-2.04,12.24
29.228646278381348,-7.82,9.37,-3.56,12.71
29.23879909515381,-7.63,9.04,-5.3,12.96
29.250234127044678,-7.71,8.89,-6.33,13.36
29.2590069770813,-7.98,8.0,-7.57,13.6
29.270517110824585,-8.23,6.69,-7.68,13.09
29.284661293029785,-9.02,5.48,-5.34,11.82
29.289185047149658,-10.25,3.88,-2.12,11.16
29.30058717727661,-11.32,2.1,-1.44,11.6
29.309364318847656,-12.45,-0.21,-1.96,12.6
29.319422245025635,-13.99,-3.12,-0.8,14.35
29.329605102539062,-15.44,-5.56,-0.38,16.41
29.33957815170288,-16.43,-7.2,-2.03,18.05
29.35113000869751,-16.93,-8.06,-3.29,19.03
29.35985517501831,-15.54,-8.17,-5.31,18.34
29.3713800907135,-10.77,-8.08,-4.79,14.29
29.385083198547363,-5.51,-4.5,1.28,7.22
29.390072107315063,-1.58,1.72,1.99,3.06
29.401416301727295,5.21,9.17,2.36,10.8
29.410218238830566,16.11,27.58,18.84,37.08
29.420294284820557,12.69,19.95,4.8,24.12
29.430344104766846,2.46,-4.34,-6.5,8.19
29.440421104431152,-1.25,0.54,-8.73,8.83
29.451868057250977,-6.76,2.11,-0.74,7.12
29.46103811264038,-10.63,-1.01,8.85,13.86
29.47189211845398,-9.35,-2.96,-2.08,10.02
29.484901189804077,-6.94,-6.02,-4.26,10.12
29.490743160247803,-5.19,-4.37,-3.97,7.86
29.502127170562744,-4.55,1.81,-5.14,7.09
29.51153326034546,-3.91,-0.77,-8.54,9.42
29.521087169647217,-2.27,-3.36,-1.84,4.45
29.531222105026245,-2.36,0.32,6.06,6.51
29.541263103485107,-2.84,-0.29,-1.22,3.1
29.552871227264404,-1.97,-1.46,-3.53,4.29
29.561500072479248,-0.91,-0.61,0.49,1.2
29.572843074798584,-0.75,0.13,0.81,1.11
29.58463215827942,-0.63,-0.13,-0.07,0.64
29.591629028320312,-0.27,-0.22,0.11,0.36
29.60294198989868,-0.23,-0.02,0.24,0.33
29.611682176589966,-0.33,-0.1,-0.13,0.36
29.621864318847656,-0.47,-0.54,-1.04,1.26
29.631967067718506,-0.37,-0.32,-0.64,0.8
29.641980171203613,-0.2,-0.22,-0.32,0.43
29.653250217437744,-0.2,-0.16,-0.39,0.46
29.662240028381348,-0.13,-0.09,-0.22,0.27
29.672253131866455,0.0,0.0,-0.21,0.21
29.684235095977783,0.18,0.06,0.21,0.28
29.692532062530518,0.35,0.13,0.42,0.56
29.70380401611328,0.33,0.11,0.42,0.54
29.712635040283203,0.21,0.12,0.52,0.57
29.722702980041504,0.0,0.09,0.37,0.38
29.73282814025879,-0.14,-0.01,0.08,0.16
29.742746114730835,-0.45,-0.54,-1.16,1.35
29.754271030426025,-0.41,-0.18,-0.43,0.62
29.763156175613403,-0.08,-0.1,0.23,0.26
29.773137092590332,0.04,0.11,0.42,0.43
29.784564971923828,-0.03,0.15,0.48,0.5
29.793286323547363,-0.09,0.15,0.6,0.62
29.80459213256836,-0.25,0.1,0.58,0.63
29.813518047332764,-0.3,-0.03,0.35,0.46
29.823522090911865,-0.15,-0.02,0.11,0.18
29.83369517326355,-0.13,0.01,-0.38,0.4
29.843714237213135,0.14,0.17,-0.09,0.23
29.855210304260254,0.16,0.2,-0.09,0.27
29.863917112350464,0.17,0.23,-0.23,0.36
29.873956203460693,0.08,0.33,-0.17,0.37
29.884873151779175,0.19,0.36,-0.26,0.48
29.894508123397827,0.46,0.45,-0.33,0.72
29.905436992645264,0.62,0.65,-0.29,0.94
29.91437816619873,0.85,0.91,-0.2,1.26
29.924323081970215,0.99,0.96,-0.18,1.39
29.934656143188477,0.88,1.3,-0.28,1.59
29.94492816925049,0.86,2.0,-0.35,2.2
29.955931186676025,0.85,1.75,-0.2,1.95
29.964811086654663,0.91,1.62,-0.76,2.0
29.974699020385742,0.9,2.04,-0.74,2.34
29.984776973724365,1.0,2.29,-0.55,2.55
29.99483013153076,1.24,2.49,-0.55,2.83
30.006251096725464,1.22,3.0,-0.49,3.27
30.015159130096436,1.02,3.46,-0.52,3.64
30.025124073028564,1.0,3.58,-0.6,3.76
30.035229206085205,0.95,3.9,-0.71,4.07
30.045209169387817,0.98,4.76,-0.79,4.92
30.05687117576599,1.27,6.74,-0.24,6.86
30.06721019744873,1.95,10.24,0.68,10.44
30.075600147247314,3.89,10.19,1.5,11.0
30.085597038269043,5.25,10.0,1.54,11.39
30.095585107803345,5.52,11.95,0.86,13.19
30.1076021194458,6.3,12.45,0.44,13.96
30.116450309753418,7.0,12.46,-1.04,14.32
30.12645196914673,7.51,12.14,0.21,14.27
30.13648009300232,8.31,12.24,0.75,14.81
30.146850109100342,9.56,12.54,1.09,15.8
30.15737819671631,10.12,12.87,1.24,16.41
30.167537212371826,10.23,11.49,-0.24,15.38
30.176303148269653,10.82,6.74,-2.56,13.0
30.186448097229004,11.46,-0.3,-6.21,13.03
30.19660997390747,11.23,-2.89,0.93,11.63
30.207815170288086,8.08,-2.67,8.57,12.07
30.216814041137695,7.86,-2.64,7.39,11.1
30.22677516937256,11.22,-2.75,5.75,12.9
30.236963272094727,12.62,-3.29,3.11,13.4
30.247037172317505,11.43,-2.61,1.92,11.88
30.25845718383789,9.83,-1.97,3.32,10.56
30.268553256988525,8.83,-2.11,4.91,10.32
30.284525156021118,7.92,-2.02,4.9,9.52
30.287307262420654,7.22,-1.87,3.69,8.32
30.297426223754883,6.73,-1.87,2.8,7.52
30.30867314338684,6.33,-1.79,2.9,7.18
30.317553997039795,6.01,-1.43,3.47,7.08
